timestamp,servo_xp,servo_xn,servo_yp,servo_yn,nmpc_solver_time,nmpc_solve_status,nmpc_last_qp_iter,nmpc_last_qp_status,nmpc_acados_status,nmpc_time_tot_ms,nmpc_time_qp_ms,nmpc_sqp_iter,nmpc_z_ref,nmpc_z_current,nmpc_z_error,nmpc_vz_ref_target,nmpc_vz_ref_slew,nmpc_vz_current,nmpc_u0_ref,nmpc_u0_opt,nmpc_u0_lbu,nmpc_u0_ubu,heading_deg,pitch,roll,yaw,accel_x,accel_y,accel_z,gyro_x,gyro_y,gyro_z,quaternion_w,quaternion_x,quaternion_y,quaternion_z,height_tof_m_filtered,gyro_temp,height_tof_mm,height_baro_m,battery_main_voltage,battery_edf_voltage,temperature,pressure,humidity,edf_percent
64613,0.0,0.0,0.0,0.0,7291.1416015625,0,0,0,0,-5.775544936941769e+20,-1.993964336971776e+18,1,1.0,0.012419572100043297,0.987580418586731,0.25,0.012000000104308128,0.002041677013039589,78.0,70.5525894165039,70.0,90.0,-5.13812255859375,2.445666790008545,-0.7904640436172485,2.212739944458008,0.084228515625,0.07080078125,1.08056640625,-2.0152671337127686,0.3129771053791046,-1.3358778953552246,0.9997210502624512,0.01591476798057556,-0.005908181890845299,0.016419902443885803,0.012419572100043297,2209,12,97,1112,2323,2724,100848,46,71
64633,-4.217187881469727,4.689476490020752,-0.9810916781425476,0.19892485439777374,7425.748046875,0,0,0,0,-5.767128131450679e+20,-1.993964336971776e+18,1,1.0,0.012462005019187927,0.9875379800796509,0.25,0.024000000208616257,0.002049115253612399,78.01580047607422,71.65692901611328,70.0,72.19999694824219,0.8514404296875,2.58253812789917,-0.8610562682151794,2.151163101196289,0.04052734375,-0.070556640625,1.081298828125,-2.137404680252075,0.9694656729698181,-1.412213683128357,0.9997185468673706,0.01616492308676243,-0.005978638771921396,0.016305403783917427,0.012462005019187927,2209,12,97,1112,2323,2724,100848,46,72
64654,-6.081879615783691,7.809238433837891,-1.9740610122680664,0.22290319204330444,7488.54541015625,0,0,0,0,-5.767128131450679e+20,-1.993964336971776e+18,1,1.0,0.012483221478760242,0.9875167608261108,0.25,0.035999998450279236,0.00205257092602551,78.03160095214844,73.19954681396484,70.80000305175781,73.19999694824219,0.1116485595703125,2.7525134086608887,-0.7834690809249878,2.1413321495056152,0.019287109375,0.007568359375,1.10498046875,-1.7862595319747925,0.5114504098892212,-3.007633686065674,0.9997134804725647,0.016574803739786148,-0.006006661802530289,0.01619461551308632,0.012483221478760242,2210,12,97,1112,2323,2724,100848,46,73
64674,-7.084812641143799,8.258428573608398,-2.0888590812683105,0.8793116211891174,7519.5361328125,0,0,0,0,-2952790016000.0,-1.993964336971776e+18,1,1.0,0.01208871603012085,0.9879112839698792,0.25,0.04800000041723251,0.001975427148863673,78.04740142822266,74.19717407226562,71.80000305175781,74.19999694824219,-6.556854248046875,3.0173754692077637,-0.7525240778923035,2.121739625930786,0.0078125,0.131591796875,1.055419921875,-0.8320610523223877,-0.022900763899087906,-1.2748091220855713,0.9997090697288513,0.016937104985117912,-0.006004758179187775,0.0160911213606596,0.01208871603012085,2210,12,97,1112,2323,2724,100848,46,74
64694,-7.197981357574463,9.579764366149902,-2.5224196910858154,0.09667479991912842,7538.0185546875,0,0,0,0,-5.775544936941769e+20,-1.993964336971776e+18,1,1.0,0.012097366154193878,0.9879026412963867,0.25,0.06000000238418579,0.0018319851951673627,78.0632095336914,75.19213104248047,72.80000305175781,75.19999694824219,-7.6902618408203125,3.2306323051452637,-0.639670193195343,2.044374465942383,0.01025390625,0.154541015625,1.06787109375,0.007633587811142206,0.17557251453399658,-4.526717662811279,0.9997034072875977,0.017464883625507355,-0.0059320321306586266,0.01590203307569027,0.012097366154193878,2209,12,97,1112,2324,2724,100848,46,75
64714,-6.9514055252075195,9.600522994995117,-2.827697515487671,0.1028827503323555,7550.033203125,0,0,0,0,-36000.0,-1.993964336971776e+18,1,1.0,0.012101691216230392,0.9878982901573181,0.25,0.07200000435113907,0.0017653454560786486,78.07901763916016,76.19973754882812,73.80000305175781,76.19999694824219,-6.8108978271484375,3.395329236984253,-0.7095367312431335,1.9655790328979492,-0.11083984375,0.092041015625,1.145263671875,-0.4122137427330017,-0.06106870248913765,-5.167938709259033,0.9996957182884216,0.01805241033434868,-0.00589471822604537,0.01574474759399891,0.012101691216230392,2210,12,97,1112,2314,2724,100848,46,76
64734,-7.2198309898376465,9.218523979187012,-2.8504559993743896,0.7795964479446411,7558.81640625,0,0,0,0,-36000.0,-1.993964336971776e+18,1,1.0,0.012110341340303421,0.9878896474838257,0.25,0.08400000631809235,0.0016414348501712084,78.09481811523438,77.19878387451172,74.80000305175781,77.19999694824219,-7.0176239013671875,3.4771642684936523,-0.7255160808563232,1.8878000974655151,-0.023193359375,0.06298828125,1.044677734375,-0.7938931584358215,-0.5343511700630188,-3.175572633743286,0.9996858239173889,0.018784312531352043,-0.005924760829657316,0.01549984235316515,0.012110341340303421,2209,12,97,1113,2305,2724,100848,46,77
64754,-8.437968254089355,10.826257705688477,-3.873617649078369,1.415696620941162,7565.25634765625,0,0,0,0,-5.791669230982639e+20,-1.993964336971776e+18,1,1.0,0.012114666402339935,0.9878853559494019,0.25,0.09600000828504562,0.0015838689869269729,78.11062622070312,78.1801528930664,75.80000305175781,78.19999694824219,-14.764816284179688,3.2987775802612305,-0.7580149173736572,1.795762062072754,0.006103515625,0.073974609375,1.036865234375,0.9923664331436157,-1.6641221046447754,-4.007633686065674,0.9996721744537354,0.0197170190513134,-0.006199156865477562,0.015111186541616917,0.012114666402339935,2209,12,97,1113,2296,2724,100848,46,78
64774,-8.9769926071167,11.018759727478027,-3.295375347137451,1.1621090173721313,7570.55029296875,0,0,0,0,-5.791669230982639e+20,-1.993964336971776e+18,1,1.0,0.012123316526412964,0.9878766536712646,0.25,0.1080000102519989,0.0014768304536119103,78.12643432617188,79.194580078125,76.80000305175781,79.19999694824219,-13.461944580078125,3.5755183696746826,-0.9535292983055115,1.6392369270324707,-0.082275390625,0.15576171875,1.095458984375,1.198473334312439,-0.9465649127960205,-2.885496139526367,0.9996600151062012,0.020576104521751404,-0.00643129413947463,0.014667410403490067,0.012123316526412964,2209,12,97,1113,2288,2724,100848,46,79
64794,-8.020959854125977,9.798778533935547,-1.738037109375,-0.1190868616104126,7574.4462890625,0,0,0,0,-5.775544936941769e+20,-1.993964336971776e+18,1,1.0,0.012127641588449478,0.9878723621368408,0.25,0.12000001221895218,0.0014271028339862823,78.14224243164062,80.19144439697266,77.80000305175781,80.19999694824219,-9.265243530273438,3.560274362564087,-0.9081100225448608,1.5102893114089966,-0.045654296875,-0.004150390625,1.080322265625,-0.7709923386573792,1.1297709941864014,-1.9389313459396362,0.9996518492698669,0.021212812513113022,-0.0064279199577867985,0.014314274303615093,0.012127641588449478,2210,12,97,1114,2280,2724,100848,46,80
64814,-8.091256141662598,9.776084899902344,-2.1554148197174072,0.4086620807647705,7606.8642578125,0,0,0,0,-5.775544936941769e+20,-1.993964336971776e+18,1,1.0,0.012136291712522507,0.9878637194633484,0.25,0.13200001418590546,0.001334638800472021,78.15804290771484,81.19717407226562,78.80000305175781,81.19999694824219,-11.989105224609375,3.1375937461853027,-0.93112713098526,1.4328161478042603,0.034912109375,-0.0556640625,1.154052734375,-0.9465649127960205,0.4351145029067993,-1.5267175436019897,0.9996477365493774,0.02156863734126091,-0.006429117638617754,0.014069871045649052,0.012136291712522507,2209,12,97,1113,2272,2723,100848,46,81
64834,-8.864105224609375,11.555458068847656,-3.4660329818725586,0.6938252449035645,7611.9736328125,0,0,0,0,-36000.0,-1.993964336971776e+18,1,1.0,0.012140616774559021,0.9878593683242798,0.25,0.14400000870227814,0.0012916822452098131,78.1738510131836,82.1534423828125,79.80000305175781,82.19999694824219,-13.937118530273438,3.1664228439331055,-0.9226052165031433,1.3326725959777832,-0.0283203125,0.089111328125,1.13720703125,0.7786259651184082,-0.7022900581359863,-3.9847328662872314,0.9996420741081238,0.021975107491016388,-0.006551889702677727,0.01378045603632927,0.012140616774559021,2209,12,97,1113,2262,2723,100848,46,82
64854,-9.886837005615234,12.059135437011719,-2.7650978565216064,0.47355183959007263,7611.52197265625,0,0,0,0,-5.775544936941769e+20,-1.993964336971776e+18,1,1.0,0.01214926689863205,0.9878507256507874,0.25,0.15600000321865082,0.001211808412335813,78.18965911865234,83.1635971069336,80.80000305175781,83.19999694824219,-9.906524658203125,3.228957176208496,-0.991963267326355,1.20583176612854,-0.02197265625,0.19189453125,1.13232421875,1.7557251453399658,0.04580152779817581,-2.5190839767456055,0.9996395707130432,0.022317899391055107,-0.006661971565335989,0.013350468128919601,0.01214926689863205,2209,14,97,1113,2252,2723,100848,46,83
64874,-9.762351036071777,11.781168937683105,-2.710073947906494,0.5802541375160217,7611.4501953125,0,0,0,0,-36000.0,-1.993964336971776e+18,1,1.0,0.01357447262853384,0.986425518989563,0.25,0.1679999977350235,0.0014719209866598248,78.20545959472656,84.19014739990234,81.80000305175781,84.19999694824219,-16.672836303710938,3.2613253593444824,-1.0048900842666626,1.118035912513733,0.024169921875,0.188720703125,1.171875,1.2748091220855713,0.038167938590049744,-1.961832046508789,0.9996376037597656,0.022545386105775833,-0.006722264923155308,0.013086846098303795,0.01357447262853384,2209,14,97,1113,2241,2723,100848,46,84
64894,-9.79182243347168,12.732969284057617,-4.004568576812744,0.9441105723381042,7611.0673828125,0,0,0,0,-36000.0,-1.993964336971776e+18,1,1.0,0.01364121399819851,0.9863587617874146,0.25,0.17999999225139618,0.0017196473199874163,78.22124481201172,85.15138244628906,82.80000305175781,85.19999694824219,-15.758331298828125,2.9306578636169434,-0.8423187732696533,0.9724106788635254,-0.03759765625,0.31591796875,1.112060546875,1.7862595319747925,-1.1679389476776123,-4.038167953491211,0.9996391534805298,0.022762034088373184,-0.006700579077005386,0.012592612765729427,0.01364121399819851,2210,14,97,1114,2230,2723,100848,46,85
64914,-9.269820213317871,11.3981294631958,-3.354489803314209,1.0928806066513062,7611.26416015625,0,0,0,0,-36000.0,-1.993964336971776e+18,1,1.0,0.013774696737527847,0.9862253069877625,0.25,0.19199998676776886,0.0021802722476422787,78.23703002929688,86.18682861328125,83.80000305175781,86.19999694824219,-23.511489868164062,2.620264768600464,-0.9496849775314331,0.8529356122016907,-0.0625,-0.063232421875,1.10107421875,0.23664122819900513,-0.7175572514533997,-1.893129825592041,0.9996417164802551,0.022835873067378998,-0.006776207126677036,0.012208533473312855,0.013774696737527847,2209,14,97,1114,2228,2723,100848,46,86
64934,-7.475802421569824,10.017107009887695,-4.015864372253418,1.3863736391067505,7611.1767578125,0,0,0,0,-36000.0,-1.993964336971776e+18,1,1.0,0.013841438107192516,0.986158549785614,0.25,0.20399998128414154,0.002394267590716481,78.2528076171875,87.12772369384766,84.80000305175781,87.19999694824219,-27.9578857421875,2.605376720428467,-0.9797672033309937,0.6726480722427368,0.022705078125,-0.167724609375,1.064208984375,-2.2595419883728027,-1.3206106424331665,-2.6183207035064697,0.999647319316864,0.022761860862374306,-0.006976064760237932,0.011769783683121204,0.013841438107192516,2209,14,97,1114,2225,2723,100848,46,87
64953,-4.900841236114502,7.285991668701172,-3.486746072769165,1.0476884841918945,7610.8408203125,0,0,0,0,-36000.0,-1.993964336971776e+18,1,1.0,0.013974920846521854,0.9860250949859619,0.25,0.21599997580051422,0.002792172599583864,78.26858520507812,87.27841186523438,85.80000305175781,88.19999694824219,-24.257797241210938,2.5770363807678223,-1.0284554958343506,0.4498848617076874,0.02685546875,0.06396484375,0.993896484375,-6.045801639556885,-0.6488549709320068,-2.0229008197784424,0.9996664524078369,0.02216367796063423,-0.007126560900360346,0.011180571280419827,0.013974920846521854,2209,14,97,1113,2221,2723,100848,46,87
64974,-3.536229372024536,5.047060489654541,-2.5902833938598633,1.060804009437561,7610.61181640625,0,0,0,0,-36000.0,-1.993964336971776e+18,1,1.0,0.014041662216186523,0.9859583377838135,0.25,0.2279999703168869,0.0029770296532660723,78.28436279296875,87.137939453125,85.80000305175781,88.19999694824219,-33.83229064941406,2.077007532119751,-1.001331090927124,0.27587342262268066,0.02197265625,-0.0634765625,1.208251953125,-8.335877418518066,0.007633587811142206,0.2748091518878937,0.9996955990791321,0.02104659378528595,-0.007200770545750856,0.01067203190177679,0.014041662216186523,2210,14,97,1113,2215,2723,100848,46,87
64994,-0.8310573101043701,2.082231283187866,-1.6338276863098145,0.3883925676345825,7610.90478515625,0,0,0,0,-36000.0,-1.993964336971776e+18,1,1.0,0.014175144955515862,0.9858248829841614,0.25,0.23999996483325958,0.0033207549713552,78.30014038085938,87.1108169555664,85.80000305175781,88.19999694824219,-23.272537231445312,1.8726789951324463,-0.9059169292449951,0.013427920639514923,0.060791015625,-0.114013671875,1.180908203125,-12.053435325622559,1.1297709941864014,1.1297709941864014,0.9997355341911316,0.019451729953289032,-0.007160675246268511,0.00996156595647335,0.014175144955515862,2209,14,97,1113,2209,2723,100847,46,87
65013,2.6254069805145264,1.2334576845169067,-3.6946911811828613,-0.24578821659088135,7610.06640625,0,0,0,0,-1000.0,-1.993964336971776e+18,1,1.0,0.01424188632518053,0.9857581257820129,0.25,0.25,0.0034804416354745626,78.31591033935547,87.14461517333984,85.80000305175781,88.19999694824219,53.18348693847656,1.552354335784912,-0.7745199799537659,-0.1728280782699585,-0.016357421875,0.0166015625,1.11572265625,-14.656488418579102,0.022900763899087906,-5.175572395324707,0.99978107213974,0.017492001876235008,-0.0070116897113621235,0.0090964175760746,0.01424188632518053,2209,14,97,1114,2204,2723,100847,46,87
65034,2.4444947242736816,1.0687376260757446,-2.5916221141815186,-0.9194281697273254,7610.45947265625,0,0,0,0,-1000.0,-1.993964336971776e+18,1,1.0,0.014375369064509869,0.9856246113777161,0.25,0.25,0.0037773645017296076,78.33168029785156,87.34447479248047,85.80000305175781,88.19999694824219,-42.32444763183594,1.3390681743621826,-0.7031728029251099,-0.17071489989757538,-0.031982421875,0.11865234375,1.317138671875,-13.816793441772461,1.2061069011688232,-3.893129825592041,0.9998242855072021,0.015400515869259834,-0.006764105521142483,0.008273810148239136,0.014375369064509869,2209,14,97,1114,2199,2723,100847,46,87
65054,2.7857401371002197,-0.863154411315918,-1.3460742235183716,-0.5713628530502319,7610.1533203125,0,0,0,0,-1074520391680.0,-1.993964336971776e+18,1,1.0,0.014442110434174538,0.9855579137802124,0.25,0.25,0.003915307577699423,78.34745025634766,87.37716674804688,85.80000305175781,88.19999694824219,-37.57991027832031,1.0304243564605713,-0.7292049527168274,-0.5145127773284912,-0.0146484375,0.100830078125,1.095947265625,-14.679388999938965,1.7633588314056396,0.17557251453399658,0.9998669028282166,0.013036147691309452,-0.006542399991303682,0.007313436828553677,0.014442110434174538,2209,16,97,1114,2194,2723,100847,46,87
65074,3.3821117877960205,-0.47265928983688354,-1.8256210088729858,-1.0862841606140137,7610.55322265625,0,0,0,0,-1074520391680.0,-1.993964336971776e+18,1,1.0,0.01562889851629734,0.9843711256980896,0.25,0.25,0.004290021024644375,78.36322021484375,87.43053436279297,85.80000305175781,88.19999694824219,-31.659866333007812,1.0254743099212646,-0.6727383136749268,-0.8192269802093506,0.0078125,0.37890625,1.2880859375,-14.297709465026855,1.7251908779144287,-2.0152671337127686,0.999891459941864,0.011546694673597813,-0.006362041924148798,0.006579651031643152,0.01562889851629734,2209,16,97,1113,2191,2723,100847,46,87
65092,3.721964120864868,-0.4859355688095093,-2.0872421264648438,-1.152543544769287,7610.61474609375,0,0,0,0,-1074520391680.0,-1.993964336971776e+18,1,1.0,0.015864582732319832,0.9841353893280029,0.25,0.25,0.004986767657101154,78.37897491455078,87.4471206665039,85.80000305175781,88.19999694824219,-31.659866333007812,0.8982399106025696,-0.7224270701408386,-1.060664176940918,0.059814453125,0.18994140625,1.242431640625,-13.832060813903809,1.4809160232543945,-2.5496182441711426,0.9999212622642517,0.009493285790085793,-0.0060736751183867455,0.005523526109755039,0.015864582732319832,2209,16,97,1113,2188,2723,100847,46,87
65114,3.592620372772217,-0.31436970829963684,-1.094057321548462,-2.188791036605835,7610.99755859375,0,0,0,0,-1074520391680.0,-1.993964336971776e+18,1,1.0,0.015982424840331078,0.984017550945282,0.25,0.25,0.005310459528118372,78.39471435546875,87.4395751953125,85.80000305175781,88.19999694824219,-40.747711181640625,1.2180345058441162,-0.8857924342155457,-1.0817136764526367,-0.11376953125,0.172607421875,1.35107421875,-12.984732627868652,2.7938930988311768,-2.358778715133667,0.9999441504478455,0.0077732824720442295,-0.005743133835494518,0.004276667721569538,0.015982424840331078,2210,16,97,1113,2185,2723,100847,46,87
65134,4.04935884475708,-1.84579598903656,0.1508101224899292,-2.3565871715545654,7610.97119140625,0,0,0,0,-1074520391680.0,-1.993964336971776e+18,1,1.0,0.01621810905635357,0.9837818741798401,0.25,0.25,0.0059123351238667965,78.41046142578125,87.47723388671875,85.80000305175781,88.19999694824219,-36.340057373046875,1.278275489807129,-0.782274067401886,-1.3797225952148438,-0.024658203125,-0.011962890625,1.255126953125,-14.030534744262695,3.6259541511535645,0.442748099565506,0.9999592304229736,0.0065019018948078156,-0.005303428042680025,0.00333975488319993,0.01621810905635357,2209,16,97,1114,2182,2723,100847,46,87
65154,3.2701311111450195,-0.5978156328201294,0.227044939994812,-2.9029977321624756,7611.14697265625,0,0,0,0,-1074520391680.0,-1.993964336971776e+18,1,1.0,0.016335951164364815,0.9836640357971191,0.25,0.25,0.006191952154040337,78.42620086669922,87.49716186523438,85.80000305175781,88.19999694824219,-28.985031127929688,1.0756131410598755,-0.8237943053245544,-1.641282558441162,-0.083984375,-0.033935546875,1.175048828125,-12.015267372131348,3.9160306453704834,-0.42748090624809265,0.9999721646308899,0.005163907539099455,-0.004867490381002426,0.0023102445993572474,0.016335951164364815,2209,16,97,1114,2180,2723,100847,46,87
65174,2.4366977214813232,0.24084854125976562,0.8257445096969604,-3.502034902572632,7611.01025390625,0,0,0,0,-5.791669230982639e+20,-1.993964336971776e+18,1,1.0,0.016571635380387306,0.9834283590316772,0.25,0.25,0.0067118750885128975,78.44194030761719,87.40813446044922,85.80000305175781,88.19999694824219,-29.221923828125,0.9369304180145264,-0.7393547892570496,-1.8416646718978882,-0.049560546875,0.03125,1.072998046875,-10.343511581420898,4.595419883728027,-0.18320611119270325,0.9999814629554749,0.004010481294244528,-0.004409004468470812,0.0012339727254584432,0.016571635380387306,2210,16,97,1114,2179,2723,100847,46,87
65194,1.1765433549880981,0.9028037786483765,1.6142421960830688,-3.6882760524749756,7611.60791015625,0,0,0,0,-604067332096.0,-1.993964336971776e+18,1,1.0,0.016689477488398552,0.9833105206489563,0.25,0.25,0.006953418720513582,78.45767974853516,87.35845184326172,85.80000305175781,88.19999694824219,-29.33856201171875,0.7284519672393799,-0.7717792391777039,-2.0297770500183105,0.08056640625,-0.01611328125,1.20556640625,-8.541984558105469,5.122137546539307,1.4885495901107788,0.9999876022338867,0.0030135163106024265,-0.003967690747231245,0.00023038164363242686,0.016689477488398552,2209,16,97,1114,2178,2723,100847,46,87
65214,0.9321775436401367,1.0535857677459717,3.6048531532287598,-5.582717418670654,7612.41552734375,0,0,0,0,-604067332096.0,-1.993964336971776e+18,1,1.0,0.016925161704421043,0.9830748438835144,0.25,0.25,0.007402547635138035,78.4734115600586,87.35710144042969,85.80000305175781,88.19999694824219,-27.383651733398438,0.5095013380050659,-0.7315041422843933,-2.2111141681671143,-0.012939453125,0.176513671875,1.126708984375,-7.893129825592041,7.648854732513428,1.9389313459396362,0.9999921917915344,0.0020186202600598335,-0.0033098843414336443,-0.000755232060328126,0.016925161704421043,2209,16,97,1114,2177,2722,100847,46,87
65234,0.1877061128616333,1.3495969772338867,4.667669296264648,-6.187685966491699,7611.9091796875,0,0,0,0,-5.791669230982639e+20,-1.993964336971776e+18,1,1.0,0.01704300381243229,0.9829570055007935,0.25,0.25,0.007611202076077461,78.4891357421875,87.52722930908203,85.80000305175781,88.19999694824219,-27.392120361328125,0.7171295285224915,-0.8881750702857971,-2.39638352394104,-0.068115234375,-0.04052734375,1.179443359375,-6.885496139526367,8.572519302368164,3.3053436279296875,0.9999938011169434,0.0013513275189325213,-0.0026056403294205666,-0.0019495052983984351,0.01704300381243229,2209,16,97,1114,2177,2722,100847,46,88
65254,0.3805600702762604,2.1264665126800537,5.404869556427002,-7.882328987121582,7612.90771484375,0,0,0,0,-604069363712.0,-1.993964336971776e+18,1,1.0,0.01727868802845478,0.9827213287353516,0.25,0.25,0.007999176159501076,78.50486755371094,87.55809020996094,86.80000305175781,89.19999694824219,-23.134292602539062,0.9997267723083496,-0.8464300036430359,-2.590440511703491,-0.090576171875,0.366455078125,1.1396484375,-6.244274616241455,10.0,1.305343508720398,0.999992847442627,0.000801441608928144,-0.0017453301697969437,-0.0032546182628721,0.01727868802845478,2209,46,97,1115,2176,2722,100847,46,88
65274,-1.3023544549942017,3.122561454772949,6.88798713684082,-8.66602611541748,7612.56005859375,0,0,0,0,-604069363712.0,-1.993964336971776e+18,1,1.0,0.03932821378111839,0.9606717824935913,0.25,0.25,0.012859311886131763,78.52059173583984,87.70484924316406,86.80000305175781,89.19999694824219,-24.435699462890625,1.1340900659561157,-0.8126769065856934,-2.7290217876434326,-0.041748046875,0.03369140625,1.2138671875,-4.213740348815918,11.343511581420898,3.106870174407959,0.9999914765357971,0.0007071829750202596,-0.0010226416634395719,-0.003943080548197031,0.03932821378111839,2209,46,97,1115,2175,2722,100847,46,88
65294,-1.2778675556182861,3.0021064281463623,8.636781692504883,-10.317070960998535,7613.0751953125,0,0,0,0,-1074858360832.0,-1.993964336971776e+18,1,1.0,0.04042883217334747,0.9595711827278137,0.25,0.25,0.017488012090325356,78.53595733642578,87.91558837890625,86.80000305175781,89.19999694824219,-32.82814025878906,1.1258620023727417,-0.7938817739486694,-2.8555233478546143,-0.123046875,0.0283203125,1.134765625,-4.297709941864014,13.312976837158203,3.580152750015259,0.9999876618385315,0.0005969605990685523,0.0002845776325557381,-0.004927097819745541,0.04042883217334747,2209,46,97,1115,2175,2722,100847,46,88
65315,-0.8391996622085571,2.6043946743011475,10.531231880187988,-12.228676795959473,7612.5380859375,0,0,0,0,-2.594193575180461e+21,-1.993964336971776e+18,1,1.0,0.042630068957805634,0.9573699235916138,0.25,0.25,0.026094667613506317,78.55131530761719,88.22344207763672,86.80000305175781,89.19999694824219,-51.78938293457031,1.2836099863052368,-0.5305854678153992,-3.029790163040161,0.042236328125,0.035400390625,1.174560546875,-4.938931465148926,15.473282814025879,3.7022900581359863,0.9999813437461853,0.0005891871405765414,0.001875240937806666,-0.005788140930235386,0.042630068957805634,2209,46,97,1114,2173,2722,100847,46,88
65334,-1.1237709522247314,3.3814523220062256,12.462031364440918,-14.591381072998047,7612.625,0,0,0,0,-1000.0,-1.993964336971776e+18,1,1.0,0.043730687350034714,0.9562693238258362,0.25,0.25,0.030093112960457802,78.5666275024414,88.50232696533203,86.80000305175781,89.19999694824219,-44.55448913574219,1.3625527620315552,-0.34522873163223267,-2.971235752105713,0.006103515625,0.1015625,1.109619140625,-4.160305500030518,17.893129348754883,2.7328243255615234,0.9999706745147705,0.000616050383541733,0.0038037975318729877,-0.006623715162277222,0.043730687350034714,2209,46,97,1114,2173,2722,100847,46,89
65354,-0.2650371789932251,2.3977081775665283,15.393505096435547,-17.365360260009766,7613.37353515625,0,0,0,0,-1000.0,-1.993964336971776e+18,1,1.0,0.045931924134492874,0.9540680646896362,0.25,0.25,0.037527862936258316,78.5819320678711,88.77335357666016,87.80000305175781,90.0,-29.930435180664062,1.3290886878967285,-0.05384504050016403,-3.246600389480591,-0.044677734375,-0.076171875,1.1787109375,-5.603053569793701,21.290077209472656,3.320610761642456,0.999952495098114,0.0006355964578688145,0.00613565044477582,-0.007545059081166983,0.045931924134492874,2209,46,97,1113,2172,2722,100847,46,89
65375,-0.6935532689094543,1.8973896503448486,19.17319679260254,-20.334413528442383,7613.40625,0,0,0,0,-1000.0,-1.993964336971776e+18,1,1.0,0.047032542526721954,0.9529674649238586,0.25,0.25,0.04098187014460564,78.59719848632812,89.56658172607422,87.80000305175781,90.0,-40.45085144042969,1.3645225763320923,0.17916110157966614,-3.667482376098633,-0.039306640625,0.1162109375,1.158935546875,-5.6946563720703125,25.51908302307129,5.72519063949585,0.9999263882637024,0.0005518726538866758,0.008865232579410076,-0.008270245045423508,0.047032542526721954,2209,46,97,1112,2170,2722,100847,46,90
65394,0.311428964138031,2.153576374053955,21.291730880737305,-23.39400863647461,7612.67041015625,0,0,0,0,-1000.0,-1.993964336971776e+18,1,1.0,0.049233779311180115,0.9507662057876587,0.25,0.25,0.04740428924560547,78.61244201660156,89.76493835449219,88.80000305175781,90.0,-44.812347412109375,1.3005603551864624,0.5045082569122314,-3.5859527587890625,-0.09619140625,0.01611328125,1.13330078125,-6.160305500030518,28.137405395507812,2.931297779083252,0.9998860359191895,0.00042161851888522506,0.012070025317370892,-0.0090643847361207,0.049233779311180115,2209,46,97,1112,2170,2722,100847,46,90
65414,1.4530589580535889,0.9966732263565063,25.340768814086914,-27.304668426513672,7612.38818359375,0,0,0,0,-1000.0,-1.993964336971776e+18,1,1.0,0.050334397703409195,0.9496656060218811,0.25,0.25,0.05038798972964287,78.62765502929688,89.84823608398438,88.80000305175781,90.0,-106.23664855957031,1.3820302486419678,0.9974831342697144,-3.838113784790039,0.02490234375,0.05078125,1.195068359375,-7.946564674377441,33.32061004638672,3.328244209289551,0.9998249411582947,0.0002926273155026138,0.01583120971918106,-0.009970811195671558,0.050334397703409195,2209,46,97,1112,2169,2722,100847,46,90
65434,0.4772256016731262,1.2329297065734863,29.667125701904297,-30.98848533630371,7612.77099609375,0,0,0,0,-1000.0,-1.993964336971776e+18,1,1.0,0.052535634487867355,0.9474643468856812,0.25,0.25,0.05593591555953026,78.64285278320312,89.91693115234375,88.80000305175781,90.0,-113.84947204589844,1.442696452140808,1.4910279512405396,-3.74912691116333,0.05712890625,0.142822265625,1.187255859375,-6.969465732574463,38.35877990722656,5.175572395324707,0.9997391104698181,7.068548438837752e-05,0.02019481360912323,-0.010676835663616657,0.052535634487867355,2209,46,97,1112,2167,2722,100847,46,90
65454,2.3717620372772217,0.9832651019096375,32.71349334716797,-33.84947967529297,7612.6611328125,0,0,0,0,-1074895060992.0,-1.993964336971776e+18,1,1.0,0.053636252880096436,0.9463637471199036,0.25,0.25,0.058513350784778595,78.65801239013672,89.95463562011719,88.80000305175781,90.0,-43.24903869628906,1.5758824348449707,1.9927219152450562,-3.669682025909424,-0.044921875,0.158935546875,1.078857421875,-8.396946907043457,43.106868743896484,1.6030534505844116,0.9996153116226196,-0.00017239496810361743,0.02529306150972843,-0.011376997455954552,0.053636252880096436,2209,108,97,1111,2165,2722,100847,46,90
65474,2.7687652111053467,-0.6476470828056335,34.62083053588867,-34.735374450683594,7612.50390625,0,0,0,0,-5.767128131450679e+20,-1.993964336971776e+18,1,1.0,0.09471301734447479,0.905286967754364,0.25,0.25,0.06961517781019211,78.67314910888672,89.96942901611328,88.80000305175781,90.0,-57.10804748535156,1.365185022354126,2.3992092609405518,-3.9195990562438965,-0.027587890625,-0.032470703125,1.174072265625,-10.099236488342285,49.992366790771484,4.778625965118408,0.9995025992393494,-0.00037581351352855563,0.02925998717546463,-0.011757247149944305,0.09471301734447479,2209,108,97,1111,2163,2722,100847,46,90
65493,2.4437389373779297,-1.0946022272109985,28.51101303100586,-27.273807525634766,7608.7578125,0,0,0,0,-2952790016000.0,-1.993964336971776e+18,1,1.0,0.10054604709148407,0.8994539380073547,0.25,0.25,0.09025803208351135,78.68763732910156,89.89441680908203,88.80000305175781,90.0,-116.4373779296875,1.2641454935073853,3.32603120803833,-3.795875310897827,0.14013671875,0.083984375,1.244140625,-10.351144790649414,55.725189208984375,7.381679534912109,0.99927818775177,-0.0007945769466459751,0.03600746765732765,-0.012080122716724873,0.10054604709148407,2209,108,97,1111,2160,2722,100847,46,90
65513,2.620358943939209,-2.055490732192993,34.525596618652344,-19.868654251098633,7607.0166015625,0,0,0,0,-2952790016000.0,-1.993964336971776e+18,1,1.0,0.10346256196498871,0.8965374231338501,0.25,0.25,0.09984821081161499,78.7020263671875,89.89794921875,88.80000305175781,90.0,-46.52214050292969,1.3801231384277344,4.541245460510254,-3.675166606903076,0.2333984375,0.262939453125,1.23974609375,-11.38167953491211,60.404579162597656,8.885496139526367,0.9989789128303528,-0.0013440345646813512,0.04344001039862633,-0.012340870685875416,0.10346256196498871,2209,108,97,1111,2159,2722,100847,46,90
65533,3.3813834190368652,-2.8539276123046875,27.07011604309082,-27.206159591674805,7600.87646484375,0,0,0,0,-2952790016000.0,-1.993964336971776e+18,1,1.0,0.10929559171199799,0.8907043933868408,0.25,0.25,0.11768028885126114,78.71636962890625,89.90682983398438,88.80000305175781,90.0,-109.69464111328125,1.402106523513794,5.631070137023926,-3.895907402038574,0.110107421875,0.19775390625,1.167236328125,-12.244275093078613,63.74809265136719,8.022900581359863,0.9985895752906799,-0.0019451752305030823,0.05153384804725647,-0.01262708380818367,0.10929559171199799,2209,108,97,1111,2158,2722,100847,46,90
65554,3.6549439430236816,-3.62036395072937,34.0955810546875,-34.27665710449219,7600.41796875,0,0,0,0,-2952790016000.0,-1.993964336971776e+18,1,1.0,0.11221210658550262,0.8877878785133362,0.25,0.25,0.12596464157104492,78.73062133789062,89.80901336669922,88.80000305175781,90.0,-60.38157653808594,1.44930899143219,6.555549621582031,-3.746500015258789,0.13134765625,0.026611328125,1.271484375,-14.183206558227539,67.58778381347656,11.473282814025879,0.998112142086029,-0.0026434389874339104,0.060047294944524765,-0.012631531804800034,0.11221210658550262,2209,108,97,1111,2156,2722,100847,46,90
65574,3.4245569705963135,-3.828958749771118,34.85370635986328,-34.85287094116211,7607.44384765625,0,0,0,0,-1000.0,-1.993964336971776e+18,1,1.0,0.1180451363325119,0.8819548487663269,0.25,0.25,0.14136865735054016,78.74482727050781,89.91566467285156,88.80000305175781,90.0,-70.08338928222656,1.067989706993103,7.688635349273682,-3.5996499061584473,0.12890625,0.07275390625,1.328857421875,-11.786259651184082,71.1832046508789,10.076335906982422,0.997519850730896,-0.0032173069193959236,0.06917783617973328,-0.012582272291183472,0.1180451363325119,2209,108,97,1111,2156,2721,100847,46,90
65593,6.144251346588135,-4.107269763946533,27.412290573120117,-27.544511795043945,7598.4677734375,0,0,0,0,-1000.0,-1.993964336971776e+18,1,1.0,0.12096165120601654,0.8790383338928223,0.25,0.25,0.14852499961853027,78.75894165039062,89.8629150390625,88.80000305175781,90.0,-118.52009582519531,0.8519061207771301,8.70353889465332,-3.5685629844665527,0.29443359375,-0.1337890625,1.25,-15.77862548828125,71.76335906982422,0.37404578924179077,0.9968260526657104,-0.0035951717291027308,0.07837975025177002,-0.013475357554852962,0.12096165120601654,2209,108,97,1111,2155,2721,100847,46,90
65624,4.31974983215332,1.0385966300964355,34.715728759765625,-34.73398208618164,7587.18994140625,0,0,0,0,-1000.0,-1.993964336971776e+18,1,1.0,0.12387816607952118,0.8761218190193176,0.25,0.25,0.15534056723117828,78.77300262451172,89.88736724853516,88.80000305175781,90.0,-81.44917297363281,0.7630917429924011,9.215801239013672,-3.6509106159210205,0.406005859375,-0.071044921875,1.311767578125,-0.19083969295024872,64.16793823242188,-17.213741302490234,0.9965896606445312,-0.0033682561479508877,0.0811464712023735,-0.01459453720599413,0.12387816607952118,2209,108,97,1111,2154,2721,100847,46,90
65640,2.7654969692230225,5.142139434814453,34.05720901489258,-33.96561050415039,7584.0166015625,0,0,0,0,-1000.0,-1.993964336971776e+18,1,1.0,0.12387816607952118,0.8761218190193176,0.25,0.25,0.15534056723117828,78.78702545166016,89.82945251464844,88.80000305175781,90.0,-110.51222229003906,0.4151650667190552,9.750082969665527,-3.774517774581909,0.4208984375,-0.31689453125,1.146484375,6.053435325622559,56.77862548828125,-25.465648651123047,0.996362566947937,-0.0029677213169634342,0.08363207429647446,-0.01607947051525116,0.12387816607952118,2209,221,97,1111,2153,2721,100847,46,90
65656,0.5053422451019287,10.75367546081543,26.75100326538086,-34.81419372558594,7586.4130859375,0,0,0,0,-5.775544936941769e+20,-1.993964336971776e+18,1,1.0,0.19202497601509094,0.8079750537872314,0.25,0.25,0.17687904834747314,78.80104064941406,89.81914520263672,88.80000305175781,90.0,-120.85877990722656,0.4329243302345276,10.12007999420166,-3.944002866744995,0.3232421875,-0.026123046875,1.167236328125,10.877862930297852,48.267173767089844,-34.64122009277344,0.9961504936218262,-0.00239969021640718,0.08576435595750809,-0.01797099970281124,0.19202497601509094,2209,221,97,1112,2153,2721,100847,46,90
65674,-1.8261463642120361,16.37535858154297,19.420787811279297,-34.6417236328125,7590.02099609375,0,0,0,0,-1073745887232.0,-1.993964336971776e+18,1,1.0,0.1981014609336853,0.8018985390663147,0.25,0.25,0.19739188253879547,78.81396484375,89.7793960571289,88.80000305175781,90.0,-77.13542175292969,0.13654747605323792,10.601293563842773,-4.285301208496094,0.28076171875,-0.0595703125,1.150146484375,15.343511581420898,38.64122009277344,-35.847328186035156,0.99576735496521,-0.001029542414471507,0.08928867429494858,-0.021768996492028236,0.1981014609336853,2209,221,97,1111,2152,2721,100847,46,90
65693,-6.05126953125,21.32753562927246,12.105878829956055,-27.32198715209961,7590.51171875,0,0,0,0,-1073745887232.0,-1.993964336971776e+18,1,1.0,0.20417794585227966,0.795822024345398,0.25,0.25,0.2169279158115387,78.82679748535156,89.70511627197266,88.80000305175781,90.0,-101.17146301269531,-0.09614343196153641,11.329553604125977,-4.699252605438232,0.3046875,-0.021728515625,1.13232421875,21.007633209228516,28.83969497680664,-27.687023162841797,0.9952530264854431,0.0015603583306074142,0.09360356628894806,-0.02659832499921322,0.20417794585227966,2209,221,97,1110,2152,2721,100847,46,90
65714,-11.433335304260254,25.464017868041992,19.475664138793945,-34.32061767578125,7599.67041015625,0,0,0,0,-1073745887232.0,-1.993964336971776e+18,1,1.0,0.21633091568946838,0.783669114112854,0.25,0.25,0.25325340032577515,78.83953094482422,89.88493347167969,88.80000305175781,90.0,-95.94595336914062,-0.016341432929039,11.968827247619629,-5.0204176902771,0.30322265625,-0.2021484375,1.169921875,23.091602325439453,21.83969497680664,-20.175573348999023,0.9948123693466187,0.004252859856933355,0.09693314880132675,-0.030565455555915833,0.21633091568946838,2209,221,97,1108,2152,2721,100847,46,90
65734,-14.210090637207031,27.239334106445312,26.8492374420166,-34.961219787597656,7606.15869140625,0,0,0,0,-5.775544936941769e+20,-1.993964336971776e+18,1,1.0,0.22240740060806274,0.7775925993919373,0.25,0.25,0.27012935280799866,78.8520736694336,89.81501007080078,88.80000305175781,90.0,-75.63685607910156,-0.20380759239196777,12.6868314743042,-5.297460556030273,0.426513671875,-0.1552734375,1.172119140625,25.267175674438477,17.01526641845703,-19.854961395263672,0.9944066405296326,0.0070036728866398335,0.09971892088651657,-0.03409755229949951,0.22240740060806274,2209,221,98,1107,2152,2721,100846,46,90
65754,-15.230378150939941,30.409700393676758,27.370492935180664,-34.899009704589844,7606.0791015625,0,0,0,0,-5.775544936941769e+20,-1.993964336971776e+18,1,1.0,0.23456037044525146,0.7654396295547485,0.25,0.25,0.30150866508483887,78.86450958251953,89.99153137207031,88.80000305175781,90.0,-101.98233032226562,-0.24392352998256683,13.173788070678711,-5.669083118438721,0.32861328125,-0.220458984375,1.172119140625,26.732824325561523,14.404580116271973,-25.351144790649414,0.9939714074134827,0.009730399586260319,0.1022312268614769,-0.03840523213148117,0.23456037044525146,2209,221,98,1106,2152,2721,100846,46,90
65774,-14.015839576721191,29.401878356933594,26.40711212158203,-27.45252799987793,7604.5126953125,0,0,0,0,-5.775544936941769e+20,-1.993964336971776e+18,1,1.0,0.24063685536384583,0.7593631744384766,0.25,0.25,0.3160867393016815,78.87675476074219,89.89529418945312,88.80000305175781,90.0,-108.03155517578125,0.042417239397764206,13.567233085632324,-6.059905052185059,0.26806640625,-0.002685546875,1.107666015625,24.4427490234375,12.4503812789917,-27.290077209472656,0.9935134649276733,0.01237059012055397,0.10461388528347015,-0.04282527044415474,0.24063685536384583,2209,221,98,1106,2151,2721,100846,46,90
65794,-11.01436996459961,26.59925651550293,25.297990798950195,-34.43674850463867,7613.47900390625,0,0,0,0,-36000.0,-1.993964336971776e+18,1,1.0,0.25278982520103455,0.7472101449966431,0.25,0.25,0.343193382024765,78.88890838623047,89.93487548828125,88.80000305175781,90.0,-71.58418273925781,-0.13419878482818604,13.744965553283691,-6.37843656539917,0.2919921875,0.08935546875,1.193359375,18.6564884185791,9.557251930236816,-24.16030502319336,0.9931143522262573,0.01430121436715126,0.10657142847776413,-0.04649684205651283,0.25278982520103455,2209,221,98,1106,2151,2721,100846,46,90
65814,-6.062549591064453,21.207866668701172,26.01495361328125,-34.436710357666016,7624.7890625,0,0,0,0,-36000.0,-1.993964336971776e+18,1,1.0,0.2588663101196289,0.7411336898803711,0.25,0.25,0.3557864725589752,78.90086364746094,89.93095397949219,88.80000305175781,90.0,-78.04388427734375,-0.18761874735355377,13.967812538146973,-6.65521240234375,0.39794921875,-0.009765625,1.25,9.183206558227539,8.70992374420166,-18.725191116333008,0.9927539825439453,0.0147939408197999,0.10844293236732483,-0.049607206135988235,0.2588663101196289,2209,221,98,1106,2151,2720,100846,46,90
65834,-0.5042591094970703,15.597689628601074,25.245481491088867,-34.222469329833984,7628.16552734375,0,0,0,0,-36000.0,-1.993964336971776e+18,1,1.0,0.2710192799568176,0.7289807200431824,0.25,0.25,0.3792022168636322,78.9127197265625,89.92910766601562,88.80000305175781,90.0,-105.98502349853516,-0.40758058428764343,14.132325172424316,-6.895537376403809,0.2880859375,-0.08935546875,1.178955078125,0.5114504098892212,6.473282337188721,-16.152671813964844,0.9924371242523193,0.014132900163531303,0.11018430441617966,-0.052233677357435226,0.2710192799568176,2209,408,98,1106,2150,2720,100846,46,90
65854,4.4284186363220215,9.534993171691895,23.533748626708984,-32.708831787109375,7625.671875,0,0,0,0,-36000.0,-1.993964336971776e+18,1,1.0,0.37456005811691284,0.6254399418830872,0.25,0.25,0.4117485284805298,78.92438507080078,89.94226837158203,88.80000305175781,90.0,-97.0457534790039,-0.8077062964439392,14.284333229064941,-6.997828006744385,0.305908203125,-0.0908203125,1.089599609375,-7.106870174407959,2.1679389476776123,-10.320611000061035,0.9923005104064941,0.012987136840820312,0.11100195348262787,-0.05338205024600029,0.37456005811691284,2209,408,98,1105,2150,2720,100846,46,90
65874,8.441591262817383,3.888726234436035,20.748456954956055,-29.34252166748047,7622.37744140625,0,0,0,0,-1074996707328.0,-1.993964336971776e+18,1,1.0,0.3851867914199829,0.6148132085800171,0.25,0.25,0.44274500012397766,78.93439483642578,89.88815307617188,88.80000305175781,90.0,-69.37596130371094,-1.5643521547317505,14.487749099731445,-7.093382358551025,0.3193359375,-0.14404296875,1.08984375,-12.786259651184082,-3.14503812789917,-6.29007625579834,0.9921980500221252,0.010332643985748291,0.11166691035032272,-0.05446821451187134,0.3851867914199829,2209,408,98,1104,2149,2720,100846,46,90
65893,10.822860717773438,-1.217371940612793,17.762441635131836,-25.02264404296875,7624.8662109375,0,0,0,0,-1074996707328.0,-1.993964336971776e+18,1,1.0,0.40644025802612305,0.593559741973877,0.25,0.25,0.5003801584243774,78.94422912597656,88.8909683227539,88.80000305175781,90.0,-80.34060668945312,-1.8875848054885864,14.597956657409668,-7.102791786193848,0.28466796875,-0.00439453125,0.985107421875,-17.190839767456055,-8.12977123260498,-0.9541984796524048,0.9921922087669373,0.007102570962160826,0.11185580492019653,-0.05470281094312668,0.40644025802612305,2209,408,98,1104,2149,2720,100846,46,89
65914,13.924421310424805,-5.946317195892334,13.509387016296387,-20.278907775878906,7618.18115234375,0,0,0,0,-1074996707328.0,-1.993964336971776e+18,1,1.0,0.4170669913291931,0.5829330086708069,0.25,0.25,0.5271560549736023,78.95372772216797,87.88399505615234,87.80000305175781,90.0,-100.8631591796875,-2.315319538116455,14.728165626525879,-7.03407096862793,0.344970703125,0.011962890625,0.982421875,-21.503816604614258,-14.832060813903809,2.1526718139648438,0.9922996759414673,0.0034437484573572874,0.11133058369159698,-0.05417541414499283,0.4170669913291931,2209,408,98,1104,2148,2720,100845,46,88
65934,14.620980262756348,-8.802513122558594,9.160538673400879,-14.96176815032959,7618.453125,0,0,0,0,-1074996707328.0,-1.993964336971776e+18,1,1.0,0.43832045793533325,0.5616795420646667,0.25,0.25,0.5769435167312622,78.96305084228516,86.86506652832031,86.80000305175781,89.19999694824219,-90.0458755493164,-2.5660948753356934,14.924485206604004,-6.917335033416748,0.35595703125,0.034912109375,0.924072265625,-22.389312744140625,-21.290077209472656,5.572519302368164,0.9924909472465515,-0.000309429073240608,0.11014974117279053,-0.05318562313914299,0.43832045793533325,2209,408,98,1106,2148,2720,100845,46,87
65954,11.297497749328613,-7.762280464172363,6.234530925750732,-9.90788745880127,7618.59619140625,0,0,0,0,-5.791669230982639e+20,-1.993964336971776e+18,1,1.0,0.4489471912384033,0.5510528087615967,0.25,0.25,0.6000735759735107,78.97203826904297,85.81903076171875,85.80000305175781,88.19999694824219,-63.688232421875,-2.993556261062622,15.105429649353027,-6.779225826263428,0.29345703125,-0.185791015625,0.80029296875,-18.137405395507812,-25.96183204650879,10.213740348815918,0.9927297234535217,-0.003868375439196825,0.10848584026098251,-0.051995810121297836,0.4489471912384033,2208,408,98,1105,2147,2720,100846,46,86
65974,9.96278190612793,-5.1123881340026855,1.9570355415344238,-6.771708011627197,7613.21240234375,0,0,0,0,-1075129810944.0,-1.993964336971776e+18,1,1.0,0.47020065784454346,0.5297993421554565,0.25,0.25,0.6430818438529968,78.9808578491211,84.83287048339844,84.80000305175781,87.19999694824219,-67.65580749511719,-3.7697787284851074,15.221705436706543,-6.647222518920898,0.3583984375,-0.119873046875,0.85888671875,-13.854961395263672,-30.02290153503418,6.809160232543945,0.9929884672164917,-0.0070631979033350945,0.1064777746796608,-0.050858307629823685,0.47020065784454346,2209,408,98,1105,2147,2720,100846,46,85
65994,6.331070423126221,-2.663864850997925,-0.3818075656890869,-3.3279006481170654,7613.51953125,0,0,0,0,-1075129810944.0,-1.993964336971776e+18,1,1.0,0.4808273911476135,0.5191726088523865,0.25,0.25,0.6630624532699585,78.98933410644531,83.8128433227539,83.80000305175781,86.19999694824219,-79.41566467285156,-3.760904312133789,15.300347328186035,-6.500945091247559,0.364501953125,-0.139404296875,0.812255859375,-8.900763511657715,-32.90839767456055,9.16030502319336,0.9932798147201538,-0.00932845938950777,0.1041235625743866,-0.04966535419225693,0.4808273911476135,2209,408,98,1105,2147,2720,100845,46,84
66014,1.0595612525939941,2.164102792739868,-5.502245903015137,2.2270944118499756,7613.70703125,0,0,0,0,-1000.0,-1.993964336971776e+18,1,1.0,0.5020808577537537,0.49791914224624634,0.25,0.25,0.7002145648002625,78.99764251708984,82.8384017944336,82.80000305175781,85.19999694824219,-73.64166259765625,-4.547213554382324,15.398247718811035,-6.308904647827148,0.318359375,-0.067138671875,0.8046875,-0.8931297659873962,-39.374046325683594,10.030534744262695,0.9936343431472778,-0.010832765139639378,0.10128604620695114,-0.04811011627316475,0.5020808577537537,2209,408,98,1104,2148,2720,100845,46,83
66034,-5.224136829376221,7.754946708679199,-9.059646606445312,7.110569953918457,7613.19677734375,0,0,0,0,-5.775544936941769e+20,-1.993964336971776e+18,1,1.0,0.5127075910568237,0.48729240894317627,0.25,0.25,0.7174745798110962,79.00560760498047,81.85813903808594,81.80000305175781,84.19999694824219,-53.49845886230469,-5.083898544311523,15.200384140014648,-6.083123207092285,0.262451171875,0.025390625,0.767578125,8.603053092956543,-43.274810791015625,12.633587837219238,0.9940499067306519,-0.01164754293859005,0.09790772199630737,-0.04629507660865784,0.5127075910568237,2209,646,98,1103,2151,2719,100845,46,82
66054,-11.32670783996582,12.736988067626953,-12.230833053588867,11.506204605102539,7612.75,0,0,0,0,-36000.0,-1.993964336971776e+18,1,1.0,0.6152443885803223,0.38475561141967773,0.21161559224128723,0.23800000548362732,0.7538897395133972,79.0134048461914,80.86974334716797,80.80000305175781,83.19999694824219,-43.83184814453125,-5.341255187988281,15.248493194580078,-5.915604591369629,0.311279296875,-0.04541015625,0.813232421875,15.603053092956543,-47.17557144165039,14.763359069824219,0.9943528771400452,-0.011669911444187164,0.09541410207748413,-0.04497070237994194,0.6152443885803223,2209,646,98,1103,2154,2719,100845,46,81
66073,-16.366334915161133,16.797754287719727,-15.144615173339844,14.985074043273926,7611.71240234375,0,0,0,0,-36000.0,-1.993964336971776e+18,1,1.0,0.6448882818222046,0.3551117181777954,0.19531144201755524,0.22600001096725464,0.8216004967689514,79.01956176757812,79.88996887207031,79.80000305175781,82.19999694824219,-44.317352294921875,-5.1135687828063965,15.029459953308105,-6.018438816070557,0.29638671875,-0.105224609375,0.850341796875,21.02290153503418,-49.85496139526367,15.183206558227539,0.9948196411132812,-0.010906688868999481,0.09136264026165009,-0.043219100683927536,0.6448882818222046,2209,646,98,1102,2157,2719,100845,46,80
66094,-19.171796798706055,18.75267219543457,-18.139331817626953,18.546306610107422,7612.4775390625,0,0,0,0,-36000.0,-1.993964336971776e+18,1,1.0,0.6597102284431458,0.34028977155685425,0.18715937435626984,0.21400001645088196,0.8530572652816772,79.0252456665039,78.95133972167969,78.80000305175781,81.19999694824219,-34.32936096191406,-5.037431716918945,14.843822479248047,-6.124556541442871,0.429443359375,-0.093994140625,0.845703125,23.832061767578125,-53.13740539550781,16.374046325683594,0.9952878952026367,-0.009620673954486847,0.0870208814740181,-0.041675277054309845,0.6597102284431458,2208,646,98,1103,2160,2719,100844,46,79
66114,-19.81818389892578,20.43952751159668,-20.68480682373047,20.090906143188477,7611.63818359375,0,0,0,0,-36000.0,-1.993964336971776e+18,1,1.0,0.6893541216850281,0.3106458783149719,0.17085523903369904,0.20200002193450928,0.911548376083374,79.03068542480469,77.96315002441406,77.80000305175781,80.19999694824219,-36.49772644042969,-4.789879322052002,14.359763145446777,-6.1804423332214355,0.307373046875,0.103271484375,0.871826171875,25.908397674560547,-55.13740539550781,13.068702697753906,0.9957413077354431,-0.008095267228782177,0.08235212415456772,-0.04064371809363365,0.6893541216850281,2208,646,98,1102,2164,2719,100844,46,78
66136,-19.494203567504883,21.819807052612305,-25.084550857543945,23.06830406188965,7611.39697265625,0,0,0,0,-36000.0,-1.993964336971776e+18,1,1.0,0.7189980149269104,0.2810019850730896,0.15455108880996704,0.1900000274181366,0.9646015167236328,79.03565979003906,79.14405822753906,76.80000305175781,79.19999694824219,-36.49772644042969,-4.548532962799072,13.997786521911621,-6.252110481262207,0.364013671875,-0.00390625,0.730224609375,25.0992374420166,-57.152671813964844,8.229007720947266,0.9962849020957947,-0.006076103542000055,0.07603093236684799,-0.03998512029647827,0.7189980149269104,2208,646,98,1103,2173,2719,100844,46,79
66154,-19.300121307373047,22.15210723876953,-25.002145767211914,22.337905883789062,7610.9150390625,0,0,0,0,-36000.0,-1.993964336971776e+18,1,1.0,0.7338199615478516,0.26618003845214844,0.14639902114868164,0.17800003290176392,0.9892487525939941,79.04015350341797,80.15735626220703,77.80000305175781,80.19999694824219,-18.949249267578125,-4.37213659286499,13.544845581054688,-6.178615570068359,0.22119140625,-0.102294921875,0.857421875,25.152671813964844,-55.893131256103516,6.458015441894531,0.9965187311172485,-0.005154729820787907,0.07301991432905197,-0.039898958057165146,0.7338199615478516,2208,646,98,1103,2173,2719,100844,46,80
66174,-16.16116714477539,20.53805160522461,-27.563993453979492,23.464187622070312,7610.8720703125,0,0,0,0,-36000.0,-1.993964336971776e+18,1,1.0,0.7486419081687927,0.2513580918312073,0.13824695348739624,0.16600003838539124,1.0127222537994385,79.0444107055664,81.1504135131836,78.80000305175781,81.19999694824219,-18.509231567382812,-3.934234142303467,12.893080711364746,-6.235606670379639,0.25390625,0.000244140625,0.82470703125,21.12213706970215,-56.167938232421875,2.458015203475952,0.9968308210372925,-0.004183534532785416,0.06851651519536972,-0.04020426422357559,0.7486419081687927,2208,646,98,1103,2179,2719,100844,46,81
66194,-12.71657657623291,16.697412490844727,-27.936338424682617,24.717195510864258,7611.01025390625,0,0,0,0,-36000.0,-1.993964336971776e+18,1,1.0,0.778285801410675,0.22171419858932495,0.12194281071424484,0.15400004386901855,1.0563693046569824,79.04843139648438,82.12640380859375,79.80000305175781,82.19999694824219,-22.1385498046875,-3.600729465484619,11.864912986755371,-6.291244983673096,0.107666015625,0.025634765625,0.7578125,15.183206558227539,-54.76335906982422,4.167938709259033,0.997135579586029,-0.0037811817601323128,0.06374426186084747,-0.04053434357047081,0.778285801410675,2208,646,98,1103,2183,2719,100844,46,82
66214,-9.578734397888184,13.028342247009277,-30.64036750793457,28.04081153869629,7610.84912109375,0,0,0,0,-5.765285174040666e+20,-1.993964336971776e+18,1,1.0,0.7931077480316162,0.2068922519683838,0.11379074305295944,0.14200004935264587,1.0766466856002808,79.0519790649414,82.78175354003906,80.80000305175781,83.19999694824219,-15.23077392578125,-3.648054361343384,10.902247428894043,-6.335030555725098,0.18505859375,-0.092529296875,0.876953125,10.099236488342285,-56.30534362792969,6.160305500030518,0.9974386692047119,-0.004017421510070562,0.058837890625,-0.04047246277332306,0.7931077480316162,2209,646,98,1104,2187,2719,100844,46,83
66234,-6.467076778411865,8.84325122833252,-30.079242706298828,28.619083404541016,7610.9150390625,0,0,0,0,-1000.0,-1.993964336971776e+18,1,1.0,0.8227516412734985,0.17724835872650146,0.09748660027980804,0.1300000548362732,1.1143505573272705,79.05529022216797,81.90206909179688,81.80000305175781,84.19999694824219,-19.954666137695312,-3.367349863052368,9.79882526397705,-6.2754597663879395,0.053955078125,-0.037353515625,0.90380859375,5.687022686004639,-55.96946716308594,9.12977123260498,0.997744083404541,-0.004682144615799189,0.053672049194574356,-0.04005209356546402,0.8227516412734985,2208,853,98,1105,2190,2718,100843,46,82
66254,-3.6288702487945557,5.008877277374268,-30.61606788635254,29.851680755615234,7610.86328125,0,0,0,0,-1000.0,-1.993964336971776e+18,1,1.0,0.8493781089782715,0.15062189102172852,0.08284204453229904,0.11800005286931992,1.1343785524368286,79.0581283569336,80.91259002685547,80.80000305175781,83.19999694824219,-13.549209594726562,-3.1937639713287354,9.102579116821289,-6.2840962409973145,0.091796875,-0.068603515625,0.95556640625,1.2977099418640137,-55.389312744140625,11.694656372070312,0.997946560382843,-0.005463112145662308,0.0500645637512207,-0.0395769327878952,0.8493781089782715,2208,853,98,1106,2191,2718,100843,46,81
66274,-0.8294122219085693,1.1392920017242432,-32.85346221923828,32.86845397949219,7611.7548828125,0,0,0,0,-1000.0,-1.993964336971776e+18,1,1.0,0.8647274971008301,0.13527250289916992,0.07439988106489182,0.10600005090236664,1.1534528732299805,79.06053924560547,80.0262680053711,79.80000305175781,82.19999694824219,-12.068817138671875,-2.6393394470214844,8.026850700378418,-6.158701419830322,0.08349609375,-0.0947265625,1.0361328125,-2.7709922790527344,-57.343509674072266,14.351144790649414,0.998245358467102,-0.006845167838037014,0.044280897825956345,-0.0387127660214901,0.8647274971008301,2209,853,98,1107,2192,2718,100843,46,80
66294,2.3182458877563477,-2.007964611053467,-34.0794792175293,34.00270462036133,7611.45556640625,0,0,0,0,-1000.0,-1.993964336971776e+18,1,1.0,0.8954262733459473,0.10457372665405273,0.057515550404787064,0.09400004893541336,1.1889197826385498,79.06269836425781,79.3561019897461,78.80000305175781,81.19999694824219,-8.11041259765625,-2.441073417663574,7.0182037353515625,-5.996088981628418,0.13818359375,0.167236328125,0.915771484375,-6.29007625579834,-58.35877990722656,13.763359069824219,0.9985222816467285,-0.008631576783955097,0.03827834874391556,-0.03759785369038582,0.8954262733459473,2208,853,98,1107,2192,2718,100843,46,79
66314,3.8856029510498047,-4.119775295257568,-33.53594970703125,33.53018569946289,7611.47119140625,0,0,0,0,-1000.0,-1.993964336971776e+18,1,1.0,0.9107756614685059,0.08922433853149414,0.04907338693737984,0.08200004696846008,1.2053968906402588,79.06437683105469,80.17802429199219,77.80000305175781,80.19999694824219,-10.8482666015625,-2.581829071044922,5.968647003173828,-5.790009498596191,0.147216796875,-0.14306640625,0.943115234375,-9.274808883666992,-59.03816604614258,15.87022876739502,0.9987703561782837,-0.010657829232513905,0.03196768835186958,-0.0363636277616024,0.9107756614685059,2208,853,98,1108,2191,2718,100843,46,80
66334,5.049453258514404,-4.718421459197998,-34.26387405395508,34.23422622680664,7618.07958984375,0,0,0,0,-1000.0,-1.993964336971776e+18,1,1.0,0.941474437713623,0.05852556228637695,0.032189060002565384,0.0700000450015068,1.2360345125198364,79.06580352783203,79.37329864501953,78.80000305175781,81.19999694824219,-6.572174072265625,-3.039564609527588,4.810716152191162,-5.590896129608154,-0.052001953125,0.1533203125,0.838623046875,-9.083969116210938,-60.847328186035156,13.4503812789917,0.9989829659461975,-0.01289861835539341,0.025433743372559547,-0.03492579609155655,0.941474437713623,2208,853,98,1110,2190,2718,100842,46,79
66354,5.148883819580078,-4.210491180419922,-34.08939743041992,34.01185607910156,7618.4765625,0,0,0,0,-1000.0,-1.993964336971776e+18,1,1.0,0.9568238258361816,0.04317617416381836,0.0,0.05800004303455353,1.2502679824829102,79.06674194335938,79.55354309082031,77.80000305175781,80.19999694824219,-3.123931884765625,-2.706177234649658,4.03726053237915,-5.4010162353515625,0.144287109375,-0.0712890625,0.843017578125,-8.4503812789917,-59.61832046508789,11.664122581481934,0.9991393685340881,-0.014801527373492718,0.018823465332388878,-0.03387020155787468,0.9568238258361816,2208,853,98,1110,2190,2718,100842,46,80
66374,7.129863739013672,-4.5866923332214355,-34.889652252197266,34.84140396118164,7618.57958984375,0,0,0,0,-1000.0,-1.993964336971776e+18,1,1.0,0.9875226020812988,0.012477397918701172,0.0,0.04600004106760025,1.2767339944839478,79.06742858886719,81.148681640625,78.80000305175781,81.19999694824219,-0.1357421875,-2.729442834854126,3.281825542449951,-5.228610992431641,0.131591796875,0.064208984375,0.902099609375,-9.282443046569824,-58.51908493041992,7.961832046508789,0.9992361664772034,-0.016555041074752808,0.012332971207797527,-0.033179789781570435,0.9875226020812988,2209,853,98,1110,2190,2717,100842,46,81
66393,5.652325630187988,-2.33320951461792,-34.23615264892578,31.975317001342773,7611.95849609375,0,0,0,0,-1000.0,-1.993964336971776e+18,1,1.0,1.0028719902038574,-0.002871990203857422,0.0,0.03400003910064697,1.2890294790267944,79.067626953125,82.06645202636719,79.80000305175781,82.19999694824219,-3.4825592041015625,-2.6775434017181396,2.6441142559051514,-5.103960990905762,0.052001953125,-0.192138671875,0.750244140625,-5.427480697631836,-55.28244400024414,5.6259541511535645,0.9992761611938477,-0.01772603578865528,0.006206796038895845,-0.033083636313676834,1.0028719902038574,2208,853,98,1111,2190,2717,100842,46,82
66414,3.523164987564087,2.169178009033203,-34.580814361572266,34.979862213134766,7618.9013671875,0,0,0,0,-1000.0,-1.993964336971776e+18,1,1.0,1.0335707664489746,-0.03357076644897461,0.0,0.022000038996338844,1.311891794204712,79.06758117675781,82.9238510131836,80.80000305175781,83.19999694824219,10.476806640625,-2.2089757919311523,1.8844711780548096,-5.10438871383667,0.1474609375,-0.04638671875,0.823486328125,-1.0687023401260376,-51.74045944213867,-0.7022900581359863,0.9992629885673523,-0.018219266086816788,0.000318658392643556,-0.0337851382791996,1.0335707664489746,2208,853,98,1111,2189,2717,100842,46,83
66434,0.48024940490722656,6.092526435852051,-27.80640411376953,33.412261962890625,7617.35791015625,0,0,0,0,-1000.0,-1.993964336971776e+18,1,1.0,1.0489201545715332,-0.0489201545715332,0.0,0.010000038892030716,1.3225131034851074,79.06704711914062,81.91840362548828,81.80000305175781,84.19999694824219,4.6477203369140625,-1.8581629991531372,1.6443530321121216,-4.984931945800781,0.088623046875,0.24560546875,0.774169921875,3.358778715133667,-48.290077209472656,-2.1526718139648438,0.9992316365242004,-0.018060576170682907,-0.004934969358146191,-0.03443276137113571,1.0489201545715332,2208,1031,98,1112,2190,2717,100842,46,82
66454,-3.0206685066223145,9.821877479553223,-34.76781463623047,32.728782653808594,7618.0234375,0,0,0,0,-1000.0,-1.993964336971776e+18,1,1.0,1.0393224954605103,-0.039322495460510254,0.0,0.0,1.327232837677002,79.0662612915039,80.85395050048828,80.80000305175781,83.19999694824219,8.803802490234375,-1.924933671951294,1.0481011867523193,-4.910353183746338,0.047607421875,-0.145263671875,0.76611328125,7.679389476776123,-44.106868743896484,-2.1526718139648438,0.9992066025733948,-0.01756685972213745,-0.00809225533157587,-0.03481476753950119,1.0393224954605103,2208,1031,98,1112,2189,2717,100842,46,81
66474,-5.537539005279541,12.720229148864746,-34.57722854614258,31.06863784790039,7617.8486328125,0,0,0,0,-1075131580416.0,-1.993964336971776e+18,1,1.0,1.067755103111267,-0.06775510311126709,-0.03726530820131302,-0.012000000104308128,1.336008906364441,79.06563568115234,79.85846710205078,79.80000305175781,82.19999694824219,10.321395874023438,-2.211012363433838,0.4797980785369873,-4.823678970336914,-0.006103515625,-0.170654296875,0.888916015625,10.633587837219238,-40.32061004638672,-3.603053331375122,0.9991607069969177,-0.016324814409017563,-0.012376503087580204,-0.03547222912311554,1.067755103111267,2208,1031,98,1111,2189,2717,100842,46,80
66494,-8.724838256835938,16.768842697143555,-33.94571304321289,28.833267211914062,7618.0283203125,0,0,0,0,-1075131580416.0,-1.993964336971776e+18,1,1.0,1.0819714069366455,-0.08197140693664551,-0.04508427530527115,-0.024000000208616257,1.3400859832763672,79.0645523071289,78.87464904785156,78.80000305175781,81.19999694824219,13.420791625976562,-1.6042144298553467,-0.01653488725423813,-4.744653224945068,-0.08837890625,0.240966796875,0.853759765625,14.87022876739502,-36.38167953491211,-6.7633585929870605,0.9991028308868408,-0.014799799770116806,-0.016196150332689285,-0.03622523695230484,1.0819714069366455,2208,1031,98,1111,2188,2716,100842,46,79
66514,-10.418082237243652,16.933046340942383,-30.638153076171875,25.984081268310547,7617.96728515625,0,0,0,0,-1075131580416.0,-1.993964336971776e+18,1,1.0,1.1104040145874023,-0.11040401458740234,-0.06072220951318741,-0.035999998450279236,1.3476670980453491,79.06324005126953,77.85061645507812,77.80000305175781,80.19999694824219,13.821136474609375,-0.7720876336097717,-0.4355524480342865,-4.631356716156006,-0.037109375,-0.00830078125,0.97314453125,15.259541511535645,-30.572519302368164,-3.3435113430023193,0.9990548491477966,-0.012561398558318615,-0.01938207820057869,-0.03682398423552513,1.1104040145874023,2208,1031,98,1111,2188,2716,100841,46,78
66533,-12.254439353942871,19.85325050354004,-29.036666870117188,22.668012619018555,7610.49609375,0,0,0,0,-1075131580416.0,-1.993964336971776e+18,1,1.0,1.1246203184127808,-0.12462031841278076,-0.06854117661714554,-0.04800000041723251,1.3511890172958374,79.06147003173828,76.85234069824219,76.80000305175781,79.19999694824219,8.8931884765625,-0.9103437662124634,-0.9402822256088257,-4.54420804977417,0.03076171875,0.254150390625,0.992431640625,17.41984748840332,-26.0,-6.679389476776123,0.9989965558052063,-0.010438070632517338,-0.02199883945286274,-0.037590477615594864,1.1246203184127808,2208,1031,98,1111,2188,2716,100841,46,77
66554,-9.284584045410156,18.266876220703125,-27.99770736694336,20.186994552612305,7610.99853515625,0,0,0,0,-5.775544936941769e+20,-1.993964336971776e+18,1,1.0,1.1530529260635376,-0.1530529260635376,-0.0841791108250618,-0.06000000238418579,1.3577378988265991,79.05947875976562,75.81505584716797,75.80000305175781,78.19999694824219,7.9576873779296875,-0.6461173295974731,-1.1998292207717896,-4.554611682891846,-0.101318359375,0.129638671875,0.8759765625,13.793892860412598,-22.709922790527344,-11.045801162719727,0.9989219307899475,-0.008496169000864029,-0.02407681941986084,-0.038770392537117004,1.1530529260635376,2208,1031,98,1111,2189,2716,100841,46,76
66574,-7.972384929656982,17.458152770996094,-23.86883544921875,15.560194969177246,7611.09765625,0,0,0,0,-5.775544936941769e+20,-1.993964336971776e+18,1,1.0,1.167269229888916,-0.16726922988891602,-0.09199807792901993,-0.07200000435113907,1.3607803583145142,79.0570297241211,74.80887603759766,74.80000305175781,77.19999694824219,11.817840576171875,-0.339697003364563,-1.4520472288131714,-4.586209774017334,-0.14794921875,0.06103515625,0.947021484375,11.847328186035156,-16.59541893005371,-12.335877418518066,0.9988484978675842,-0.006897964049130678,-0.02554166316986084,-0.0400209054350853,1.167269229888916,2208,1031,98,1111,2188,2716,100841,46,75
66594,-4.714613914489746,14.057923316955566,-20.541032791137695,11.898326873779297,7617.03125,0,0,0,0,-1074828673024.0,-1.993964336971776e+18,1,1.0,1.1957018375396729,-0.19570183753967285,-0.10763601213693619,-0.08400000631809235,1.3664374351501465,79.05435180664062,73.80701446533203,73.80000305175781,76.19999694824219,8.76287841796875,0.5976694822311401,-1.8487976789474487,-4.621742248535156,-0.15673828125,0.074951171875,0.97412109375,7.206106662750244,-11.770992279052734,-12.061068534851074,0.9987719058990479,-0.005435295403003693,-0.02644786797463894,-0.04154117405414581,1.1957018375396729,2208,1031,98,1110,2189,2716,100841,46,74
66625,1.2469534873962402,8.06915283203125,-14.563353538513184,5.860729217529297,7609.7890625,0,0,0,0,-1074828673024.0,-1.993964336971776e+18,1,1.0,1.1957018375396729,-0.19570183753967285,-0.10763601213693619,-0.09600000828504562,1.3664374351501465,79.05122375488281,72.82181549072266,72.80000305175781,75.19999694824219,9.038558959960938,0.8546648621559143,-1.9822179079055786,-4.562177658081055,-0.134033203125,0.22021484375,1.041259765625,-2.1221373081207275,-2.786259651184082,-11.984732627868652,0.9987544417381287,-0.005273372866213322,-0.02638857811689377,-0.04201735928654671,1.1957018375396729,2208,1171,98,1109,2190,2715,100841,46,73
66641,6.424938201904297,2.316244602203369,-9.365739822387695,1.0403614044189453,7611.2421875,0,0,0,0,-1074828673024.0,-1.993964336971776e+18,1,1.0,1.1821955442428589,-0.1821955442428589,-0.10020755231380463,-0.10020755231380463,1.3627851009368896,79.04808807373047,71.81495666503906,71.80000305175781,74.19999694824219,7.9919891357421875,0.8469415903091431,-2.0474839210510254,-4.489075660705566,-0.0966796875,0.038330078125,0.98388671875,-8.229007720947266,2.2366411685943604,-9.496183395385742,0.9987460970878601,-0.005370935890823603,-0.0261155366897583,-0.04237295687198639,1.1821955442428589,2208,1171,98,1108,2192,2715,100841,46,72
66656,8.288134574890137,0.16345787048339844,-7.935090065002441,-0.4882805347442627,7611.0498046875,0,0,0,0,-1074828673024.0,-1.993964336971776e+18,1,1.0,1.1821955442428589,-0.1821955442428589,-0.10020755231380463,-0.10020755231380463,1.3627851009368896,79.04517364501953,70.80595397949219,70.80000305175781,73.19999694824219,8.654830932617188,0.742180347442627,-2.0389108657836914,-4.429691314697266,-0.04638671875,-0.024658203125,0.93896484375,-10.09160327911377,3.610687017440796,-10.19847297668457,0.9987378716468811,-0.00556091358885169,-0.025783702731132507,-0.04274371638894081,1.1821955442428589,2208,1171,98,1108,2195,2715,100840,46,71
66674,12.406599044799805,-3.5790436267852783,-5.466656684875488,-3.4833414554595947,7610.9365234375,0,0,0,0,-1074828673024.0,-1.993964336971776e+18,1,1.0,1.1950929164886475,-0.19509291648864746,-0.10730110853910446,-0.10730110853910446,1.3593066930770874,79.0422592163086,70.03350067138672,70.0,72.19999694824219,9.010345458984375,0.9924782514572144,-2.118044376373291,-4.438694953918457,-0.072509765625,0.151611328125,0.94873046875,-15.595419883728027,6.900763511657715,-12.259541511535645,0.9987151026725769,-0.0062570651061832905,-0.024918753653764725,-0.04368121922016144,1.1950929164886475,2208,1171,98,1109,2198,2715,100840,46,70
66694,15.143585205078125,-5.548761367797852,-4.422126770019531,-5.497158527374268,7610.85791015625,0,0,0,0,-1074828673024.0,-1.993964336971776e+18,1,1.0,1.2208876609802246,-0.2208876609802246,-0.12148821353912354,-0.11930111050605774,1.3528388738632202,79.03913879394531,70.0196304321289,70.0,71.19999694824219,8.727981567382812,0.8150651454925537,-1.9802497625350952,-4.498574256896973,-0.05029296875,-0.04345703125,0.943115234375,-17.969465255737305,8.32824420928955,-14.572519302368164,0.9986846446990967,-0.007596886716783047,-0.023393677547574043,-0.044988784939050674,1.2208876609802246,2208,1171,98,1108,2204,2715,100840,46,70
66714,17.085468292236328,-8.12951374053955,-2.995033025741577,-6.3936543464660645,7610.7646484375,0,0,0,0,-1074828673024.0,-1.993964336971776e+18,1,1.0,1.2337850332260132,-0.23378503322601318,-0.12858177721500397,-0.12858177721500397,1.3498340845108032,79.03560638427734,70.02200317382812,70.0,71.19999694824219,10.92962646484375,1.0161274671554565,-1.8774539232254028,-4.583729267120361,-0.083984375,0.098388671875,0.91845703125,-20.534351348876953,9.29007625579834,-12.61832046508789,0.9986412525177002,-0.00903991237282753,-0.02180337719619274,-0.046460386365652084,1.2337850332260132,2208,1171,98,1107,2210,2715,100840,46,70
66734,18.07685089111328,-8.863930702209473,-1.704946756362915,-8.09737491607666,7611.0888671875,0,0,0,0,-1074828673024.0,-1.993964336971776e+18,1,1.0,1.2595797777175903,-0.25957977771759033,-0.14276887476444244,-0.14058177173137665,1.3442468643188477,79.0318603515625,70.0133285522461,70.0,71.19999694824219,8.892257690429688,0.7505007982254028,-1.9897559881210327,-4.6473870277404785,-0.019287109375,0.16845703125,0.982177734375,-21.18320655822754,10.732824325561523,-13.603053092956543,0.9985939860343933,-0.010613958351314068,-0.02016367018222809,-0.047863464802503586,1.2595797777175903,2208,1171,98,1107,2214,2715,100840,46,70
66754,15.254502296447754,-7.248495101928711,0.5064685344696045,-9.03691577911377,7610.234375,0,0,0,0,-1074828673024.0,-1.993964336971776e+18,1,1.0,1.272477149963379,-0.2724771499633789,-0.14986243844032288,-0.14986243844032288,1.341651201248169,79.0277099609375,70.00333404541016,70.0,71.19999694824219,9.094497680664062,0.6635426878929138,-1.9654029607772827,-4.698625564575195,-0.070068359375,-0.248046875,0.960205078125,-17.83969497680664,12.106870651245117,-9.61832046508789,0.9985608458518982,-0.011814089491963387,-0.018409134820103645,-0.04896731302142143,1.272477149963379,2207,1171,98,1107,2218,2715,100840,46,70
66774,15.314746856689453,-5.531462669372559,-0.08812761306762695,-10.022379875183105,7609.72412109375,0,0,0,0,-1074828673024.0,-1.993964336971776e+18,1,1.0,1.298271894454956,-0.29827189445495605,-0.16404955089092255,-0.16186243295669556,1.3368247747421265,79.02335357666016,70.00214385986328,70.0,71.19999694824219,8.065093994140625,0.8015201687812805,-1.8745678663253784,-4.757081508636475,-0.04833984375,0.197509765625,0.791748046875,-16.274808883666992,12.0,-14.114503860473633,0.9985201358795166,-0.012883913703262806,-0.016752175986766815,-0.05010945722460747,1.298271894454956,2208,1171,98,1107,2222,2714,100839,46,70
66794,12.062036514282227,-2.430321216583252,0.8554033041000366,-10.704024314880371,7610.12890625,0,0,0,0,-1074828673024.0,-1.993964336971776e+18,1,1.0,1.3111692667007446,-0.31116926670074463,-0.17114309966564178,-0.17114309966564178,1.3345825672149658,79.0185775756836,70.00199890136719,70.0,71.19999694824219,11.451446533203125,0.9608877897262573,-1.91573166847229,-4.817624568939209,-0.1044921875,-0.047607421875,0.912353515625,-11.946564674377441,12.465648651123047,-13.22137451171875,0.9984898567199707,-0.013117975555360317,-0.015143660828471184,-0.0511525459587574,1.3111692667007446,2208,1171,98,1108,2226,2714,100839,46,70
66813,9.782751083374023,0.04442548751831055,1.4402369260787964,-11.274995803833008,7609.3662109375,0,0,0,0,-1000.0,-1.993964336971776e+18,1,1.0,1.3369640111923218,-0.3369640111923218,-0.18533021211624146,-0.18314309418201447,1.3304134607315063,79.01360321044922,70.0009536743164,70.0,71.19999694824219,10.002914428710938,1.130621075630188,-1.766474723815918,-4.833964824676514,-0.072509765625,0.022705078125,0.81494140625,-8.786259651184082,12.694656372070312,-13.045801162719727,0.9984728693962097,-0.012802154757082462,-0.013540169224143028,-0.05200758948922157,1.3369640111923218,2208,1171,98,1108,2229,2714,100839,46,70
66834,5.47345495223999,3.9336719512939453,1.8925361633300781,-11.112096786499023,7609.46875,0,0,0,0,-1000.0,-1.993964336971776e+18,1,1.0,1.3498613834381104,-0.34986138343811035,-0.1924237608909607,-0.1924237608909607,1.3284765481948853,79.00820922851562,70.0076675415039,70.0,71.19999694824219,8.45721435546875,1.239638328552246,-1.7108619213104248,-4.860611438751221,-0.024658203125,0.003662109375,0.871826171875,-3.435114622116089,12.38167953491211,-11.045801162719727,0.9984616637229919,-0.011830739676952362,-0.012099680490791798,-0.05280156061053276,1.3498613834381104,2208,1226,98,1108,2231,2714,100839,46,70
66854,1.773667335510254,6.9754319190979,1.454201102256775,-10.01725959777832,7609.2919921875,0,0,0,0,-5.775544936941769e+20,-1.993964336971776e+18,1,1.0,1.2606794834136963,-0.2606794834136963,-0.14337371289730072,-0.180423766374588,1.3041118383407593,79.00260925292969,70.00596618652344,70.0,71.19999694824219,8.560256958007812,1.2913743257522583,-1.6461749076843262,-4.835525035858154,-0.06689453125,-0.031005859375,0.8681640625,0.6641221642494202,11.114503860473633,-8.847328186035156,0.9984630942344666,-0.010810423642396927,-0.011255469173192978,-0.053178299218416214,1.2606794834136963,2208,1226,98,1108,2234,2714,100839,46,70
66874,-1.5346183776855469,10.237947463989258,0.30692315101623535,-8.967926025390625,7609.3125,0,0,0,0,-1075049463808.0,-1.993964336971776e+18,1,1.0,1.2770159244537354,-0.27701592445373535,-0.1523587554693222,-0.16842377185821533,1.2588077783584595,78.99844360351562,70.01237487792969,70.0,71.19999694824219,8.142471313476562,1.4113682508468628,-1.4652312994003296,-4.842618465423584,0.0126953125,-0.10302734375,0.94482421875,4.427480697631836,9.335877418518066,-8.854961395263672,0.9984708428382874,-0.008770838379859924,-0.010228035040199757,-0.05361385643482208,1.2770159244537354,2208,1226,98,1108,2236,2714,100839,46,70
66894,-5.632615089416504,13.991093635559082,-0.147635817527771,-8.275986671447754,7608.7958984375,0,0,0,0,-5.767128131450679e+20,-1.993964336971776e+18,1,1.0,1.2851841449737549,-0.2851841449737549,-0.15685127675533295,-0.15685127675533295,1.2377605438232422,78.99401092529297,70.02145385742188,70.0,71.19999694824219,10.7091064453125,1.8341540098190308,-1.3983683586120605,-4.850886344909668,-0.018798828125,-0.0341796875,0.9169921875,9.007633209228516,8.274808883666992,-7.893129825592041,0.9984773993492126,-0.006196466274559498,-0.009405537508428097,-0.05400080233812332,1.2851841449737549,2208,1226,98,1110,2236,2714,100839,46,70
66913,-8.007794380187988,15.767348289489746,-0.44947487115859985,-7.642956733703613,7608.515625,0,0,0,0,-5.767128131450679e+20,-1.993964336971776e+18,1,1.0,1.301520586013794,-0.30152058601379395,-0.16583631932735443,-0.16583631932735443,1.1986252069473267,78.98944854736328,70.0085220336914,70.0,71.19999694824219,2.1827239990234375,1.9866344928741455,-1.4100337028503418,-4.811502456665039,-0.05224609375,-0.02587890625,0.8916015625,10.656488418579102,7.4122138023376465,-6.748091697692871,0.9984905123710632,-0.00334070879034698,-0.00874086283147335,-0.054121240973472595,1.301520586013794,2208,1226,98,1111,2236,2713,100839,46,70
66934,-11.154916763305664,18.552444458007812,-0.2152823507785797,-7.652655601501465,7608.21484375,0,0,0,0,-2952790016000.0,-1.993964336971776e+18,1,1.0,1.3096888065338135,-0.3096888065338135,-0.17032884061336517,-0.17032884061336517,1.1804438829421997,78.984619140625,70.02569580078125,70.0,71.19999694824219,7.806884765625,2.094292640686035,-1.4676406383514404,-4.821409702301025,-0.02587890625,-0.006103515625,0.93212890625,13.755724906921387,7.335877895355225,-6.022900581359863,0.9985038638114929,-0.00030884219449944794,-0.008218515664339066,-0.05405969172716141,1.3096888065338135,2208,1226,98,1110,2237,2713,100839,46,70
66954,-12.662250518798828,19.87738800048828,-0.23533552885055542,-7.683948040008545,7608.23681640625,0,0,0,0,-2952790016000.0,-1.993964336971776e+18,1,1.0,1.3260252475738525,-0.32602524757385254,-0.17931388318538666,-0.17931388318538666,1.146637201309204,78.97966766357422,70.0140151977539,70.0,71.19999694824219,3.9401092529296875,2.203380584716797,-1.4221107959747314,-4.7790141105651855,-0.015869140625,0.171875,0.90869140625,14.70992374420166,7.129770755767822,-6.152671813964844,0.9985116124153137,0.0025916884187608957,-0.007721959613263607,-0.053928788751363754,1.3260252475738525,2208,1226,98,1111,2236,2713,100839,46,70
66974,-14.231345176696777,20.64165496826172,0.3448304533958435,-7.546741962432861,7608.27880859375,0,0,0,0,-5.775544936941769e+20,-1.993964336971776e+18,1,1.0,1.334193468093872,-0.33419346809387207,-0.1838064044713974,-0.1838064044713974,1.1309314966201782,78.97444915771484,70.01997375488281,70.0,71.19999694824219,4.5310821533203125,2.1294076442718506,-1.5771228075027466,-4.75275993347168,-0.048095703125,-0.056884765625,0.984375,15.38167953491211,7.244274616241455,-4.053435325622559,0.998517632484436,0.005523522384464741,-0.007278865203261375,-0.05365739390254021,1.334193468093872,2208,1226,98,1110,2236,2713,100839,46,70
66994,-13.630693435668945,19.129528045654297,0.6649761199951172,-6.903964996337891,7608.04443359375,0,0,0,0,-5.775544936941769e+20,-1.993964336971776e+18,1,1.0,1.3505299091339111,-0.35052990913391113,-0.19279144704341888,-0.19279144704341888,1.1017282009124756,78.96910095214844,70.00032043457031,70.0,71.19999694824219,4.0767059326171875,2.541957139968872,-1.7102020978927612,-4.722688674926758,-0.084716796875,-0.133056640625,0.929931640625,13.152671813964844,6.923664093017578,-1.2366411685943604,0.9985153079032898,0.00825547520071268,-0.0069671375676989555,-0.05339036136865616,1.3505299091339111,2208,1226,98,1110,2236,2713,100839,46,70
67014,-13.54675006866455,19.860504150390625,0.5800716280937195,-7.539316177368164,7609.02099609375,0,0,0,0,-2.5942031453296693e+21,-1.993964336971776e+18,1,1.0,1.3586981296539307,-0.35869812965393066,-0.19728396832942963,-0.19728396832942963,1.0881609916687012,78.96349334716797,70.01167297363281,70.0,71.19999694824219,1.986419677734375,2.7068183422088623,-1.767423152923584,-4.688514232635498,-0.096435546875,0.17236328125,1.013671875,12.702290534973145,7.076335906982422,-3.4503817558288574,0.998511552810669,0.01075766421854496,-0.006667806301265955,-0.05305256322026253,1.3586981296539307,2208,1226,98,1110,2236,2713,100839,46,70
67034,-12.215581893920898,18.39400863647461,1.3759100437164307,-8.221020698547363,7609.6533203125,0,0,0,0,-5.775544936941769e+20,-1.993964336971776e+18,1,1.0,1.3750345706939697,-0.3750345706939697,-0.2062690258026123,-0.2062690258026123,1.0629340410232544,78.95775604248047,70.00363159179688,70.0,71.19999694824219,3.750457763671875,2.7867789268493652,-1.7644078731536865,-4.668290138244629,-0.101806640625,0.04150390625,0.953125,10.206107139587402,7.885496139526367,-3.2061069011688232,0.9985086917877197,0.012803196907043457,-0.0062945750541985035,-0.052695777267217636,1.3750345706939697,2208,1210,98,1111,2236,2713,100839,46,70
67055,-10.053065299987793,15.303936958312988,3.969020366668701,-9.660594940185547,7609.22509765625,0,0,0,0,-5.775544936941769e+20,-1.993964336971776e+18,1,1.0,1.250564694404602,-0.25056469440460205,-0.1378105878829956,-0.19426903128623962,1.0229841470718384,78.95175170898438,70.02685546875,70.0,71.19999694824219,-0.7169036865234375,2.869300603866577,-1.920581579208374,-4.5709357261657715,-0.119873046875,-0.02294921875,0.949951171875,6.259541988372803,10.374045372009277,0.1450381726026535,0.9985185265541077,0.01390007697045803,-0.0059517789632081985,-0.05227033048868179,1.250564694404602,2208,1210,98,1111,2236,2712,100838,46,70
67074,-6.255820274353027,12.263138771057129,4.2500319480896,-10.514857292175293,7609.4130859375,0,0,0,0,-36000.0,-1.993964336971776e+18,1,1.0,1.2528045177459717,-0.2528045177459717,-0.13904248178005219,-0.18226903676986694,0.9849366545677185,78.94774627685547,70.03092193603516,70.0,71.19999694824219,1.47894287109375,3.098292112350464,-2.1032373905181885,-4.577767372131348,-0.124267578125,0.05810546875,1.006591796875,1.1908396482467651,10.854961395263672,-1.9236640930175781,0.9985355138778687,0.015036037191748619,-0.005435694474726915,-0.05168362334370613,1.2528045177459717,2208,1210,98,1111,2236,2712,100838,46,70
67094,-3.3823440074920654,8.952113151550293,6.361236572265625,-11.923501968383789,7610.35400390625,0,0,0,0,-36000.0,-1.993964336971776e+18,1,1.0,1.257284164428711,-0.25728416442871094,-0.14150629937648773,-0.17026904225349426,0.9141907691955566,78.9437026977539,70.04403686523438,70.0,71.19999694824219,-1.278167724609375,3.2033791542053223,-2.22930645942688,-4.5160908699035645,-0.138671875,0.103515625,1.043212890625,-3.106870174407959,12.877862930297852,-0.09160305559635162,0.9985715746879578,0.015434259548783302,-0.004706420470029116,-0.05093541368842125,1.257284164428711,2208,1210,98,1112,2236,2712,100838,46,70
67114,-1.7833245992660522,6.242134094238281,8.179401397705078,-12.496160507202148,7610.9306640625,0,0,0,0,-5.775544936941769e+20,-1.993964336971776e+18,1,1.0,1.2595239877700806,-0.25952398777008057,-0.1427381932735443,-0.15826904773712158,0.8813239336013794,78.93958282470703,70.06217956542969,70.0,71.19999694824219,-2.2523651123046875,3.2878258228302,-2.2069761753082275,-4.4547247886657715,-0.0712890625,0.001953125,1.0439453125,-5.992366313934326,14.137404441833496,3.2748091220855713,0.9986216425895691,0.015459269285202026,-0.003819991834461689,-0.050012003630399704,1.2595239877700806,2208,1210,98,1112,2236,2712,100838,46,70
67134,1.4314509630203247,3.109894275665283,9.221675872802734,-13.585301399230957,7611.37890625,0,0,0,0,-36000.0,-1.993964336971776e+18,1,1.0,1.2640036344528198,-0.2640036344528198,-0.14520199596881866,-0.1462690532207489,0.8202109932899475,78.93543243408203,70.1549301147461,70.0,71.19999694824219,-2.8776702880859375,3.0699663162231445,-2.3388888835906982,-4.36718225479126,-0.184326171875,-0.0263671875,1.003662109375,-10.145038604736328,15.206107139587402,2.8473281860351562,0.998691201210022,0.015010002069175243,-0.00282229739241302,-0.04881245642900467,1.2640036344528198,2208,1210,98,1112,2236,2712,100838,46,70
67154,2.7776107788085938,0.6991462707519531,11.381040573120117,-14.619558334350586,7611.578125,0,0,0,0,-36000.0,-1.993964336971776e+18,1,1.0,1.2662434577941895,-0.26624345779418945,-0.14643390476703644,-0.14643390476703644,0.7918193936347961,78.93120574951172,70.20401000976562,70.0,71.19999694824219,-1.53009033203125,2.8742117881774902,-2.376511573791504,-4.254606246948242,-0.158203125,0.0869140625,0.979736328125,-12.29007625579834,16.97709846496582,5.877862453460693,0.9987757802009583,0.014129185117781162,-0.0017498943489044905,-0.047373559325933456,1.2662434577941895,2208,1210,98,1111,2236,2712,100838,46,70
67173,3.820655107498169,-0.39630448818206787,12.212708473205566,-15.402440071105957,7611.5673828125,0,0,0,0,-36000.0,-1.993964336971776e+18,1,1.0,1.2707231044769287,-0.2707231044769287,-0.1488977074623108,-0.1488977074623108,0.739027738571167,78.92694854736328,70.53275299072266,70.0,71.19999694824219,-2.246917724609375,2.5634090900421143,-2.356905221939087,-4.099924087524414,-0.0908203125,0.08251953125,1.05029296875,-13.442748069763184,17.87786293029785,5.595419883728027,0.9988705515861511,0.013082598336040974,-0.0005793735617771745,-0.04567486047744751,1.2707231044769287,2208,1210,98,1111,2236,2712,100838,46,71
67195,3.415614366531372,-1.6543327569961548,14.206987380981445,-15.769909858703613,7611.02099609375,0,0,0,0,-36000.0,-1.993964336971776e+18,1,1.0,1.2729629278182983,-0.27296292781829834,-0.15012961626052856,-0.15012961626052856,0.7145019769668579,78.92261505126953,72.1624755859375,70.0,72.19999694824219,-1.9212646484375,2.2950401306152344,-2.436224937438965,-3.893265724182129,-0.159423828125,0.06103515625,0.94384765625,-13.893129348754883,19.58015251159668,10.274808883666992,0.9989777207374573,0.01183896791189909,0.0006864744354970753,-0.04362267255783081,1.2729629278182983,2208,1210,98,1110,2235,2712,100838,46,72
67213,3.0957157611846924,-2.4760403633117676,16.1290340423584,-16.646541595458984,7610.40087890625,0,0,0,0,-5.767128131450679e+20,-1.993964336971776e+18,1,1.0,1.2774425745010376,-0.2774425745010376,-0.15259341895580292,-0.15259341895580292,0.6688985228538513,78.91825103759766,73.08904266357422,70.80000305175781,73.19999694824219,-7.2463836669921875,2.0396792888641357,-2.2589733600616455,-3.7051889896392822,-0.041259765625,-0.026123046875,0.949462890625,-13.87022876739502,20.503816604614258,13.206107139587402,0.9990794062614441,0.010684152133762836,0.0020610627252608538,-0.041496675461530685,1.2774425745010376,2208,1210,98,1110,2235,2712,100838,46,73
67234,2.2924749851226807,-1.5131093263626099,18.585346221923828,-19.279605865478516,7609.68505859375,0,0,0,0,-2952790016000.0,-1.993964336971776e+18,1,1.0,1.2796823978424072,-0.2796823978424072,-0.1538253277540207,-0.1538253277540207,0.6477122902870178,78.91381072998047,74.06588745117188,71.80000305175781,74.19999694824219,-8.176162719726562,1.9681369066238403,-2.0774192810058594,-3.5319814682006836,-0.084228515625,0.052490234375,1.035400390625,-12.374045372009277,23.45801544189453,12.267175674438477,0.9991739988327026,0.009649079293012619,0.0037738794926553965,-0.039293255656957626,1.2796823978424072,2208,1150,98,1111,2235,2711,100838,47,74
67254,-0.25923895835876465,0.5348702669143677,20.638046264648438,-20.82352066040039,7609.86865234375,0,0,0,0,-2.5942031453296693e+21,-1.993964336971776e+18,1,1.0,1.183010220527649,-0.18301022052764893,-0.10065562278032303,-0.141825333237648,0.6061583757400513,78.90933227539062,75.14092254638672,72.80000305175781,75.19999694824219,-4.6261444091796875,1.7795038223266602,-1.9341192245483398,-3.4290995597839355,-0.066162109375,0.0380859375,1.004150390625,-9.259541511535645,25.56488609313965,13.4503812789917,0.9992308020591736,0.00911374855786562,0.005070590414106846,-0.03780297562479973,1.183010220527649,2208,1150,98,1111,2235,2711,100838,46,75
67274,-2.2891793251037598,2.5850253105163574,21.541723251342773,-21.801979064941406,7610.0361328125,0,0,0,0,-604070412288.0,-1.993964336971776e+18,1,1.0,1.1785117387771606,-0.17851173877716064,-0.09818145632743835,-0.12982533872127533,0.5288925766944885,78.90640258789062,76.17955017089844,73.80000305175781,76.19999694824219,-8.832901000976562,1.3434219360351562,-1.4805923700332642,-3.2403576374053955,0.056884765625,-0.108154296875,0.975830078125,-6.335877895355225,26.534351348876953,13.007633209228516,0.9993001222610474,0.008557677268981934,0.007183500565588474,-0.03569965064525604,1.1785117387771606,2208,1150,98,1111,2235,2711,100838,46,76
67294,-4.145464897155762,4.846624374389648,21.73387336730957,-22.369163513183594,7609.21875,0,0,0,0,-604070412288.0,-1.993964336971776e+18,1,1.0,1.1762624979019165,-0.1762624979019165,-0.09694437682628632,-0.11782533675432205,0.4929967522621155,78.90354919433594,77.15133666992188,74.80000305175781,77.19999694824219,-8.55255126953125,0.9462113380432129,-1.0714167356491089,-3.0886073112487793,0.001953125,-0.01611328125,0.97998046875,-3.3129770755767822,26.687023162841797,11.534351348876953,0.999354898929596,0.00817796029150486,0.009454328566789627,-0.03366731107234955,1.1762624979019165,2209,1150,98,1112,2232,2711,100838,46,77
67314,-5.290571689605713,5.63602876663208,22.70357894897461,-22.9423770904541,7609.3154296875,0,0,0,0,-604070412288.0,-1.993964336971776e+18,1,1.0,1.1717640161514282,-0.17176401615142822,-0.09447021037340164,-0.10582533478736877,0.4262516498565674,78.90072631835938,78.14545440673828,75.80000305175781,78.19999694824219,-6.391571044921875,0.7813225388526917,-0.7311798334121704,-2.933029890060425,-0.0068359375,-0.034912109375,0.98779296875,-1.9847328662872314,27.206106185913086,12.213740348815918,0.9993963837623596,0.008061444386839867,0.011824148707091808,-0.03165639564394951,1.1717640161514282,2208,1150,98,1111,2230,2711,100838,46,78
67333,-6.800917625427246,7.542535305023193,23.277559280395508,-23.94003677368164,7608.6708984375,0,0,0,0,-1000.0,-1.993964336971776e+18,1,1.0,1.169514775276184,-0.16951477527618408,-0.0932331308722496,-0.0938253328204155,0.39524346590042114,78.89797973632812,79.15263366699219,76.80000305175781,79.19999694824219,-9.974319458007812,0.5598427653312683,-0.41014882922172546,-2.7577922344207764,-0.0361328125,0.04833984375,1.075439453125,0.4656488597393036,27.76335906982422,10.740458488464355,0.9994251132011414,0.008153241127729416,0.014286521822214127,-0.029647134244441986,1.169514775276184,2208,1150,98,1111,2228,2711,100838,46,79
67354,-9.73242473602295,9.812187194824219,24.215173721313477,-24.143184661865234,7608.57568359375,0,0,0,0,-1000.0,-1.993964336971776e+18,1,1.0,1.1650162935256958,-0.1650162935256958,-0.09075896441936493,-0.09075896441936493,0.33758655190467834,78.89527130126953,80.13985443115234,77.80000305175781,80.19999694824219,-13.321701049804688,0.5996076464653015,0.10031929612159729,-2.6264331340789795,0.075927734375,0.0322265625,1.14208984375,4.030534267425537,27.93893051147461,12.229007720947266,0.9994347095489502,0.008552146144211292,0.0168413408100605,-0.027811245992779732,1.1650162935256958,2208,1150,98,1111,2227,2711,100838,46,80
67373,-10.711814880371094,11.351556777954102,23.424083709716797,-24.0406551361084,7608.63134765625,0,0,0,0,-1000.0,-1.993964336971776e+18,1,1.0,1.1627670526504517,-0.16276705265045166,-0.0895218774676323,-0.0895218774676323,0.3108005225658417,78.89263153076172,81.15168762207031,78.80000305175781,81.19999694824219,-12.73876953125,0.7934896349906921,0.5522728562355042,-2.55637788772583,0.06103515625,-0.00537109375,1.106201171875,5.664122104644775,26.633586883544922,10.41984748840332,0.9994226098060608,0.00922235008329153,0.019392361864447594,-0.02633196860551834,1.1627670526504517,2208,1150,98,1112,2223,2711,100838,46,81
67394,-11.471908569335938,12.761138916015625,23.073490142822266,-24.212854385375977,7609.18212890625,0,0,0,0,-5.767128131450679e+20,-1.993964336971776e+18,1,1.0,1.1582685708999634,-0.15826857089996338,-0.08704771846532822,-0.08704771846532822,0.2609943151473999,78.89002227783203,82.14327239990234,79.80000305175781,82.19999694824219,-12.696929931640625,0.6930937170982361,0.9722481966018677,-2.4927070140838623,0.029052734375,0.007080078125,1.06494140625,6.931297779083252,25.549617767333984,8.534351348876953,0.999398946762085,0.00998385064303875,0.021848183125257492,-0.024996815249323845,1.1582685708999634,2208,1150,98,1113,2220,2711,100838,46,82
67414,-10.402512550354004,12.030217170715332,22.930233001708984,-24.320791244506836,7610.11865234375,0,0,0,0,-5.775544936941769e+20,-1.993964336971776e+18,1,1.0,1.1560193300247192,-0.15601933002471924,-0.08581063151359558,-0.08581063151359558,0.23785553872585297,78.88748931884766,83.14785766601562,80.80000305175781,83.19999694824219,-16.517684936523438,0.6354616284370422,1.3790549039840698,-2.4347317218780518,0.0634765625,-0.113525390625,1.142578125,5.450381755828857,24.671754837036133,7.541984558105469,0.999367356300354,0.010597663931548595,0.024255944415926933,-0.02375447377562523,1.1560193300247192,2209,1064,98,1112,2216,2711,100838,46,83
67434,-10.503377914428711,11.137145042419434,23.035158157348633,-23.45256233215332,7610.46630859375,0,0,0,0,-36000.0,-1.993964336971776e+18,1,1.0,1.088136076927185,-0.08813607692718506,-0.04847484454512596,-0.0738106295466423,0.20123755931854248,78.88499450683594,84.12842559814453,81.80000305175781,84.19999694824219,-22.247817993164062,0.7902165055274963,1.6657682657241821,-2.450934410095215,0.098876953125,0.0380859375,1.122802734375,4.541984558105469,23.503816604614258,9.893129348754883,0.9993436336517334,0.010908913798630238,0.025821363553404808,-0.022946465760469437,1.088136076927185,2208,1064,98,1112,2211,2710,100838,46,84
67453,-8.830825805664062,9.714941024780273,22.73906135559082,-23.52330207824707,7610.21240234375,0,0,0,0,-21474836480000.0,-1.993964336971776e+18,1,1.0,1.077513575553894,-0.07751357555389404,-0.04263246804475784,-0.061810627579689026,0.13314971327781677,78.88358306884766,85.02386474609375,82.80000305175781,85.19999694824219,-15.908126831054688,0.9299600720405579,2.0370328426361084,-2.4672224521636963,0.06298828125,0.173095703125,1.28564453125,2.29007625579834,22.56488609313965,9.22137451171875,0.9993049502372742,0.011075429618358612,0.02811415307223797,-0.021831057965755463,1.077513575553894,2208,1064,98,1112,2206,2710,100838,46,85
67474,-7.168285846710205,7.440832614898682,23.0379581451416,-23.173250198364258,7609.7470703125,0,0,0,0,-184000.0,-1.993964336971776e+18,1,1.0,1.0722023248672485,-0.07220232486724854,-0.039711277931928635,-0.04981062561273575,0.10151772946119308,78.91226959228516,85.99467468261719,83.80000305175781,86.19999694824219,-10.031234741210938,0.7135361433029175,2.3087832927703857,-2.4135971069335938,-0.020751953125,-0.15234375,1.30078125,-0.5267175436019897,21.9007625579834,10.603053092956543,0.9992682933807373,0.010934030637145042,0.03032909333705902,-0.02057800255715847,1.0722023248672485,2208,1064,98,1112,2200,2710,100838,46,86
67494,-5.518523216247559,5.883525848388672,22.64671516418457,-22.969724655151367,7610.14990234375,0,0,0,0,-184000.0,-1.993964336971776e+18,1,1.0,1.0615798234939575,-0.06157982349395752,-0.033868905156850815,-0.03781062364578247,0.042700886726379395,78.94563293457031,86.87508392333984,84.80000305175781,87.19999694824219,-21.51861572265625,0.6532793045043945,2.5795164108276367,-2.3043127059936523,-0.0146484375,0.015380859375,1.27294921875,-2.7022900581359863,20.76335906982422,10.114503860473633,0.9992355704307556,0.010371162556111813,0.03240889683365822,-0.019246160984039307,1.0615798234939575,2208,1064,98,1112,2196,2710,100838,46,87
67514,-3.0163073539733887,2.8288156986236572,22.933813095092773,-22.671855926513672,7609.9140625,0,0,0,0,-1073874141184.0,-1.993964336971776e+18,1,1.0,1.056268572807312,-0.05626857280731201,-0.030947715044021606,-0.030947715044021606,0.015375987626612186,78.98329162597656,87.86144256591797,85.80000305175781,88.19999694824219,-20.696884155273438,0.9627590179443359,2.904812812805176,-2.2831554412841797,0.106689453125,0.17919921875,1.206298828125,-6.56488561630249,20.03816795349121,11.374045372009277,0.9992001056671143,0.009524703957140446,0.0344378799200058,-0.01795724220573902,1.056268572807312,2208,1064,98,1113,2192,2710,100838,46,88
67533,-1.2398226261138916,0.5780436992645264,23.771055221557617,-23.168859481811523,7610.1083984375,0,0,0,0,-1073874141184.0,-1.993964336971776e+18,1,1.0,1.045646071434021,-0.045646071434020996,0.0,-0.018947714939713478,-0.03543221578001976,79.0256576538086,88.76213073730469,86.80000305175781,89.19999694824219,-25.80926513671875,0.9367735385894775,3.0916690826416016,-2.255068063735962,0.042724609375,-0.1767578125,1.24072265625,-9.183206558227539,20.19847297668457,12.175572395324707,0.9991604685783386,0.008495470508933067,0.03642502427101135,-0.016715267673134804,1.045646071434021,2208,1064,98,1113,2187,2710,100838,46,89
67554,0.04039585590362549,-0.857478141784668,23.471046447753906,-22.795921325683594,7610.68896484375,0,0,0,0,-5.775544936941769e+20,-1.993964336971776e+18,1,1.0,1.0403348207473755,-0.04033482074737549,0.0,-0.00694771483540535,-0.0590364895761013,79.0249252319336,87.94648742675781,87.80000305175781,90.0,-25.044815063476562,0.7735365033149719,3.3052563667297363,-2.259704351425171,0.14697265625,-0.003662109375,1.309326171875,-10.67175579071045,19.9007625579834,12.22137451171875,0.9991196990013123,0.007173835299909115,0.038325291126966476,-0.015478263609111309,1.0403348207473755,2208,1064,98,1113,2181,2710,100838,47,88
67574,0.7403637170791626,-2.167438507080078,23.48969078063965,-22.2606143951416,7610.88525390625,0,0,0,0,-36000.0,-1.993964336971776e+18,1,1.0,1.0297123193740845,-0.029712319374084473,0.0,0.0,-0.10292652249336243,79.06755065917969,87.98003387451172,86.80000305175781,89.19999694824219,-24.467071533203125,0.6782796382904053,3.6319544315338135,-2.2402424812316895,0.14404296875,-0.12890625,1.19775390625,-11.770992279052734,19.366413116455078,13.435114860534668,0.999070942401886,0.005761600099503994,0.04029859974980354,-0.01414751261472702,1.0297123193740845,2208,1064,98,1113,2176,2710,100838,46,88
67594,2.5357742309570312,-2.8871896266937256,23.605663299560547,-23.48501205444336,7611.22509765625,0,0,0,0,-36000.0,-1.993964336971776e+18,1,1.0,1.024401068687439,-0.024401068687438965,0.0,0.0,-0.12331678718328476,79.11018371582031,89.13172149658203,86.80000305175781,89.19999694824219,-46.80220031738281,0.29467836022377014,3.7921266555786133,-2.2231476306915283,0.043701171875,0.021240234375,1.390380859375,-12.900763511657715,19.007633209228516,10.51145076751709,0.9990162253379822,0.004114488605409861,0.04221930354833603,-0.012929290533065796,1.024401068687439,2208,1064,98,1112,2170,2710,100838,46,89
67625,1.1751290559768677,-2.2258195877075195,23.105581283569336,-22.147314071655273,7611.1103515625,0,0,0,0,-5.791669230982639e+20,-1.993964336971776e+18,1,1.0,1.0190898180007935,-0.019089818000793457,0.0,0.0,-0.14273607730865479,79.10979461669922,89.86492919921875,87.80000305175781,90.0,-31.56658935546875,0.09017543494701385,3.9247376918792725,-2.502552032470703,0.1181640625,-0.125732421875,1.176513671875,-11.358778953552246,17.5572509765625,12.0,0.9989975094795227,0.0036090249195694923,0.042813509702682495,-0.012571528553962708,1.0190898180007935,2208,988,98,1112,2166,2710,100838,46,90
67641,1.4934378862380981,-1.4760332107543945,21.80171012878418,-21.949295043945312,7611.03515625,0,0,0,0,-5.791669230982639e+20,-1.993964336971776e+18,1,1.0,1.0190898180007935,-0.019089818000793457,0.0,0.0,-0.14273607730865479,79.10948944091797,89.845703125,88.80000305175781,90.0,-29.1915283203125,0.0012885816395282745,3.9826035499572754,-2.6742007732391357,0.062255859375,-0.031982421875,1.198486328125,-10.725191116333008,16.229007720947266,9.496183395385742,0.9989786744117737,0.003121244488283992,0.04334963485598564,-0.012358743697404861,1.0190898180007935,2208,988,98,1113,2161,2710,100838,46,90
67655,-1.1462219953536987,-0.10390853881835938,21.717975616455078,-20.493228912353516,7610.81787109375,0,0,0,0,-2.594191886330601e+21,-1.993964336971776e+18,1,1.0,0.9944977760314941,0.005502223968505859,0.0,0.0,-0.16545435786247253,79.10918426513672,89.78485107421875,88.80000305175781,90.0,-29.71435546875,-0.2281195968389511,4.029215335845947,-2.811150312423706,0.05810546875,-0.16845703125,1.171142578125,-7.740458011627197,14.854961395263672,12.38167953491211,0.9989628195762634,0.0027364473789930344,0.04382358118891716,-0.01205524243414402,0.9944977760314941,2208,988,98,1112,2158,2710,100838,46,90
67672,-1.3399379253387451,0.5432587265968323,20.618236541748047,-20.007343292236328,7611.5302734375,0,0,0,0,-5.775544936941769e+20,-1.993964336971776e+18,1,1.0,0.988299548625946,0.011700451374053955,0.0,0.0,-0.18709081411361694,79.10926818847656,89.78567504882812,88.80000305175781,90.0,-29.71435546875,-0.19221673905849457,4.049978256225586,-2.8959951400756836,0.02490234375,-0.069091796875,1.062744140625,-6.839694499969482,13.48854923248291,11.206107139587402,0.9989328384399414,0.0021207549143582582,0.044655848294496536,-0.011601928621530533,0.988299548625946,2208,988,98,1112,2154,2710,100838,46,90
67694,-2.781155824661255,2.86755633354187,18.410371780395508,-18.562984466552734,7611.12109375,0,0,0,0,-36000.0,-1.993964336971776e+18,1,1.0,0.982101321220398,0.01789867877960205,0.0,0.0,-0.20769695937633514,79.10945892333984,89.83741760253906,88.80000305175781,90.0,-34.03375244140625,-0.11967907100915909,4.213641166687012,-2.736168146133423,0.069580078125,0.025390625,1.176025390625,-3.755725145339966,10.534351348876953,8.977099418640137,0.9988963603973389,0.0015327533474192023,0.04562405124306679,-0.011053243651986122,0.982101321220398,2208,988,98,1111,2151,2710,100838,46,90
67714,-5.147301197052002,4.432203769683838,17.417448043823242,-16.707124710083008,7611.32177734375,0,0,0,0,-36000.0,-1.993964336971776e+18,1,1.0,0.9697048664093018,0.030295133590698242,0.0,0.0,-0.24601225554943085,79.1097412109375,89.7656021118164,88.80000305175781,90.0,-37.456085205078125,-0.25935840606689453,4.361872673034668,-2.797617197036743,0.0703125,-0.062744140625,1.146728515625,-0.8625954389572144,8.167939186096191,10.740458488464355,0.998874306678772,0.0013579173246398568,0.04625081270933151,-0.010448012501001358,0.9697048664093018,2208,988,98,1111,2147,2709,100838,46,90
67734,-7.852159023284912,6.857005596160889,15.08787727355957,-14.153573036193848,7611.60009765625,0,0,0,0,-36000.0,-1.993964336971776e+18,1,1.0,0.9635066390037537,0.03649336099624634,0.0,0.0,-0.2638126313686371,79.1102294921875,89.7117919921875,88.80000305175781,90.0,-45.769073486328125,-0.03325457498431206,4.492185592651367,-2.89926815032959,0.092529296875,0.01025390625,1.17236328125,2.961832046508789,4.664122104644775,11.274808883666992,0.9988716840744019,0.0016002195188775659,0.0463845431804657,-0.010067977011203766,0.9635066390037537,2208,988,98,1111,2144,2709,100838,46,90
67754,-8.549779891967773,8.016623497009277,11.83891773223877,-11.333186149597168,7611.24853515625,0,0,0,0,-36000.0,-1.993964336971776e+18,1,1.0,0.9511101841926575,0.04888981580734253,0.0,0.0,-0.29691082239151,79.11080932617188,89.5151596069336,88.80000305175781,90.0,-48.71258544921875,0.14280465245246887,4.462756633758545,-3.073363780975342,0.10546875,0.01806640625,1.19873046875,4.206106662750244,0.4122137427330017,10.236640930175781,0.9988889694213867,0.002176815178245306,0.046024151146411896,-0.009897046722471714,0.9511101841926575,2208,988,98,1111,2142,2709,100838,47,90
67774,-9.943394660949707,8.882218360900879,8.844600677490234,-7.810534954071045,7612.00390625,0,0,0,0,-1074258116608.0,-1.993964336971776e+18,1,1.0,0.9449119567871094,0.055088043212890625,0.030298424884676933,0.012000000104308128,-0.31228744983673096,79.1115951538086,89.11479187011719,88.80000305175781,90.0,-32.4979248046875,0.13583916425704956,4.3789849281311035,-2.9027278423309326,0.06982421875,-0.12890625,1.195556640625,5.656488418579102,-3.9541983604431152,11.389312744140625,0.9989321827888489,0.0029765295330435038,0.045117124915122986,-0.009491807781159878,0.9449119567871094,2208,988,98,1111,2141,2709,100838,47,89
67794,-11.721980094909668,9.765645980834961,6.768182754516602,-4.799797534942627,7612.55224609375,0,0,0,0,-5.765285174040666e+20,-1.993964336971776e+18,1,1.0,0.9325155019760132,0.06748449802398682,0.03711647540330887,0.024000000208616257,-0.3408789038658142,79.11247253417969,89.4218978881836,87.80000305175781,90.0,-29.680084228515625,0.22350561618804932,4.236528396606445,-2.951434373855591,0.061767578125,-0.02734375,1.181640625,7.396946430206299,-7.053435325622559,13.541984558105469,0.9989940524101257,0.003975028172135353,0.04373035207390785,-0.009096285328269005,0.9325155019760132,2208,988,98,1111,2140,2709,100838,46,89
67814,-11.632899284362793,9.674901008605957,2.7746598720550537,-0.7487673759460449,7612.71630859375,0,0,0,0,-1074110070784.0,-1.993964336971776e+18,1,1.0,0.9263172745704651,0.07368272542953491,0.04052549973130226,0.035999998450279236,-0.35416179895401,79.11355590820312,89.45352935791016,87.80000305175781,90.0,-36.79893493652344,0.4563300907611847,4.0654520988464355,-2.960240125656128,0.085693359375,-0.06005859375,1.127197265625,7.0,-12.267175674438477,13.534351348876953,0.9990761876106262,0.005021481309086084,0.04180780053138733,-0.008581717498600483,0.9263172745704651,2208,977,98,1111,2139,2709,100838,46,89
67834,-11.160345077514648,9.684395790100098,-0.9167838096618652,2.5068466663360596,7612.55078125,0,0,0,0,-1074110070784.0,-1.993964336971776e+18,1,1.0,0.9606482982635498,0.039351701736450195,0.0,0.023999998345971107,-0.3576385974884033,79.11473083496094,89.27652740478516,87.80000305175781,90.0,-34.08049011230469,0.3111681640148163,3.8960540294647217,-3.0785698890686035,0.07177734375,0.05517578125,1.130615234375,6.5190839767456055,-16.625953674316406,12.297709465026855,0.9991440176963806,0.005534799303859472,0.040166135877370834,-0.008202798664569855,0.9606482982635498,2208,977,98,1110,2138,2709,100838,46,89
67854,-10.43244743347168,9.147804260253906,-4.175016403198242,5.526883602142334,7613.34375,0,0,0,0,-1074110070784.0,-1.993964336971776e+18,1,1.0,0.9521048069000244,0.047895193099975586,0.0,0.011999998241662979,-0.36410340666770935,79.11536407470703,89.20173645019531,87.80000305175781,90.0,-28.975418090820312,0.3380037844181061,3.6417644023895264,-3.116107225418091,0.07666015625,0.11474609375,1.158447265625,5.3740458488464355,-20.06106948852539,11.70992374420166,0.9992572069168091,0.006108848378062248,0.03724651038646698,-0.0077766976319253445,0.9521048069000244,2208,977,98,1109,2136,2709,100838,46,89
67874,-9.50825023651123,7.26095724105835,-7.422927379608154,9.571293830871582,7613.2294921875,0,0,0,0,-1073921851392.0,-1.993964336971776e+18,1,1.0,0.9478330612182617,0.05216693878173828,0.028691817075014114,0.023999998345971107,-0.3671067953109741,79.11612701416016,89.33300018310547,87.80000305175781,90.0,-22.8636474609375,0.3229767382144928,3.330984592437744,-3.089477062225342,0.108154296875,-0.039794921875,1.211181640625,3.076335906982422,-24.23664093017578,13.893129348754883,0.9993836283683777,0.006501882802695036,0.03374867886304855,-0.007148177828639746,0.9478330612182617,2208,977,98,1109,2136,2709,100838,47,89
67894,-9.019866943359375,6.744513511657715,-11.37391185760498,13.598774909973145,7613.7568359375,0,0,0,0,-1073936400384.0,-1.993964336971776e+18,1,1.0,0.9392895698547363,0.06071043014526367,0.03339073807001114,0.03339073807001114,-0.3726913332939148,79.1169662475586,89.6103744506836,87.80000305175781,90.0,-19.077804565429688,0.20789200067520142,2.816153049468994,-3.0134379863739014,0.067138671875,0.077880859375,1.055908203125,2.3358778953552246,-28.809160232543945,13.80152702331543,0.999515175819397,0.006533862091600895,0.029746737331151962,-0.006477342918515205,0.9392895698547363,2208,977,98,1109,2136,2709,100839,47,90
67914,-7.187689781188965,4.930089950561523,-14.099912643432617,16.24153709411621,7613.6083984375,0,0,0,0,-5.76528693325927e+20,-1.993964336971776e+18,1,1.0,0.9350178241729736,0.06498217582702637,0.0357401967048645,0.0357401967048645,-0.3752857744693756,79.11793518066406,89.83250427246094,88.80000305175781,90.0,-14.562515258789062,-0.009169047698378563,2.4336392879486084,-2.9011528491973877,0.0302734375,-0.13427734375,1.134765625,-0.3435114622116089,-31.045801162719727,13.557251930236816,0.9996400475502014,0.006201938260346651,0.025468844920396805,-0.0057084825821220875,0.9350178241729736,2208,977,98,1109,2136,2709,100839,47,90
67934,-5.185320854187012,3.044786214828491,-16.407644271850586,18.35832977294922,7614.2763671875,0,0,0,0,-1073988239360.0,-1.993964336971776e+18,1,1.0,0.9264743328094482,0.07352566719055176,0.040439117699861526,0.040439117699861526,-0.3801099359989166,79.11897277832031,89.8896713256836,88.80000305175781,90.0,-12.45611572265625,0.1213488057255745,1.976731777191162,-2.7993581295013428,-0.012939453125,-0.000732421875,1.09423828125,-3.14503812789917,-32.77862548828125,13.145038604736328,0.9997496604919434,0.005661695264279842,0.020989857614040375,-0.005286089144647121,0.9264743328094482,2208,977,98,1110,2136,2709,100839,46,90
67954,-4.654840469360352,3.100205659866333,-19.317455291748047,20.688020706176758,7614.5048828125,0,0,0,0,-1073988239360.0,-1.993964336971776e+18,1,1.0,0.9222025871276855,0.07779741287231445,0.04278857633471489,0.04278857633471489,-0.3823511302471161,79.12015533447266,89.91307830810547,88.80000305175781,90.0,-9.39013671875,0.08040586113929749,1.5311312675476074,-2.7068874835968018,0.077392578125,0.04931640625,1.158447265625,-3.2061069011688232,-35.16030502319336,11.725191116333008,0.9998432397842407,0.0049410355277359486,0.016238028183579445,-0.005036504473537207,0.9222025871276855,2208,977,98,1110,2135,2709,100839,46,90
67974,-1.952359676361084,2.8604254722595215,-22.92145538330078,22.07069206237793,7614.3623046875,0,0,0,0,97978933051392.0,-1.993964336971776e+18,1,1.0,0.9136590957641602,0.08634090423583984,0.047487497329711914,0.047487497329711914,-0.3865184187889099,79.12139892578125,89.92974090576172,88.80000305175781,90.0,-9.0767822265625,-0.009986437857151031,1.0697249174118042,-2.6336517333984375,0.08154296875,0.095703125,1.08984375,-5.27480936050415,-37.35877990722656,5.72519063949585,0.999915361404419,0.004074288532137871,0.011251270771026611,-0.005102636758238077,0.9136590957641602,2208,977,98,1111,2135,2709,100839,46,90
67993,-1.2280813455581665,3.859269618988037,-25.682432174682617,23.48725700378418,7612.90380859375,0,0,0,0,-805316460544.0,-1.993964336971776e+18,1,1.0,0.9093873500823975,0.09061264991760254,0.049836959689855576,0.049836959689855576,-0.3884544372558594,79.1227798461914,89.9488296508789,88.80000305175781,90.0,-10.593246459960938,-0.041370030492544174,0.5115089416503906,-2.597675085067749,0.009521484375,0.313232421875,1.07666015625,-4.603053569793701,-38.7557258605957,2.137404680252075,0.9999616742134094,0.0030895450618118048,0.006107183173298836,-0.005465369671583176,0.9093873500823975,2208,977,98,1110,2135,2709,100839,46,90
68014,-0.8124416470527649,3.6449270248413086,-27.52293586730957,25.354446411132812,7613.1044921875,0,0,0,0,-805316460544.0,-1.993964336971776e+18,1,1.0,0.9008438587188721,0.09915614128112793,0.0545358806848526,0.0545358806848526,-0.3920542895793915,79.12422943115234,89.95635223388672,88.80000305175781,90.0,-9.585098266601562,-0.04258875176310539,-0.009034913033246994,-2.5967142581939697,-0.014404296875,0.07763671875,1.10791015625,-4.717557430267334,-39.90076446533203,1.8625954389572144,0.9999792575836182,0.002174095483496785,0.0009018077980726957,-0.005997952539473772,0.9008438587188721,2208,1028,98,1110,2134,2709,100839,47,90
68034,0.11735725402832031,3.6997885704040527,-29.437143325805664,26.48863983154297,7612.7666015625,0,0,0,0,-805316460544.0,-1.993964336971776e+18,1,1.0,0.9968533515930176,0.003146648406982422,0.0,0.04253587871789932,-0.3721059560775757,79.12581634521484,89.9669418334961,88.80000305175781,90.0,-11.516006469726562,-0.016432926058769226,-0.4495624899864197,-2.638479709625244,-0.044189453125,0.101318359375,1.025146484375,-5.2366414070129395,-41.16030502319336,-0.28244274854660034,0.9999734163284302,0.0016158918151631951,-0.002667580731213093,-0.006597657222300768,0.9968533515930176,2208,1028,98,1111,2134,2709,100839,47,90
68054,-0.22080987691879272,5.08121395111084,-31.17129898071289,27.71182632446289,7612.73974609375,0,0,0,0,-2.594191886330601e+21,-1.993964336971776e+18,1,1.0,0.9971219301223755,0.0028780698776245117,0.0,0.030535878613591194,-0.3531075417995453,79.12586212158203,89.96390533447266,88.80000305175781,90.0,-12.98150634765625,-0.23144695162773132,-1.020351767539978,-2.688377618789673,-0.02197265625,0.1103515625,0.9892578125,-3.6335878372192383,-41.74809265136719,-2.396946668624878,0.9999394416809082,0.000812713464256376,-0.008040723390877247,-0.007473697420209646,0.9971219301223755,2208,1028,98,1112,2133,2709,100839,47,90
68074,-0.996945321559906,5.427638530731201,-31.89657211303711,29.152376174926758,7612.2392578125,0,0,0,0,-604006907904.0,-1.993964336971776e+18,1,1.0,0.9976590871810913,0.0023409128189086914,0.0,0.018535878509283066,-0.3177817165851593,79.12590789794922,89.96717834472656,88.80000305175781,90.0,-4.0804901123046875,-0.3121244013309479,-1.5325754880905151,-2.8000760078430176,0.02587890625,-0.06005859375,1.0615234375,-2.496183156967163,-41.709922790527344,-1.0610686540603638,0.999870240688324,0.0002335322496946901,-0.013510667718946934,-0.0087752565741539,0.9976590871810913,2208,1028,98,1112,2133,2709,100839,46,90
68094,-0.14752650260925293,6.445474624633789,-33.51248550415039,29.958797454833984,7612.5947265625,0,0,0,0,-604006907904.0,-1.993964336971776e+18,1,1.0,0.9979276657104492,0.0020723342895507812,0.0,0.0065358784049749374,-0.30137017369270325,79.12594604492188,89.96759796142578,88.80000305175781,90.0,9.090545654296875,-0.27664655447006226,-2.132338047027588,-2.8679730892181396,-0.003173828125,-0.024658203125,1.0712890625,-2.4122138023376465,-42.267173767089844,-5.045801639556885,0.999768853187561,-0.0002506159071344882,-0.01891443505883217,-0.010222552344202995,0.9979276657104492,2208,1028,98,1112,2132,2709,100839,46,90
68114,-0.23719792068004608,7.958778381347656,-34.19525909423828,30.457496643066406,7613.0009765625,0,0,0,0,-604006907904.0,-1.993964336971776e+18,1,1.0,0.998464822769165,0.001535177230834961,0.0,0.0,-0.2708543837070465,79.12598419189453,89.97479248046875,88.80000305175781,90.0,14.291229248046875,-0.035022299736738205,-2.722116708755493,-2.8685286045074463,-0.0126953125,0.202880859375,0.99365234375,-1.14503812789917,-41.816795349121094,-7.8015265464782715,0.9996339082717896,-0.0005064947763457894,-0.024325139820575714,-0.011835568584501743,0.998464822769165,2208,1028,98,1112,2131,2709,100839,46,90
68134,-0.12434980273246765,8.127060890197754,-34.40547561645508,30.84899139404297,7612.9541015625,0,0,0,0,-604006907904.0,-1.993964336971776e+18,1,1.0,0.998733401298523,0.0012665987014770508,0.0,0.0,-0.2566774785518646,79.12600708007812,89.97496795654297,88.80000305175781,90.0,15.235488891601562,-0.003217733930796385,-3.3809478282928467,-2.8377907276153564,-0.107421875,0.187744140625,1.051513671875,-1.038167953491211,-40.64885330200195,-8.099236488342285,0.99947190284729,-0.000734131783246994,-0.02959492988884449,-0.013398071750998497,0.998733401298523,2208,1028,98,1113,2130,2709,100839,46,90
68154,-1.7797740697860718,8.980128288269043,-34.51071548461914,32.32010269165039,7612.94921875,0,0,0,0,-1000.0,-1.993964336971776e+18,1,1.0,0.9992705583572388,0.0007294416427612305,0.0,0.0,-0.23031680285930634,79.12602233886719,89.965576171875,88.80000305175781,90.0,10.64764404296875,-0.22751417756080627,-3.933014392852783,-2.767591714859009,-0.0498046875,0.009521484375,1.044921875,0.9847328066825867,-40.8702278137207,-5.832061290740967,0.9992859363555908,-0.0007914247107692063,-0.03485756739974022,-0.0145597318187356,0.9992705583572388,2208,1028,98,1113,2130,2709,100839,47,90
68176,-2.331808090209961,9.003435134887695,-34.7043342590332,33.4647216796875,7612.24072265625,0,0,0,0,-1000.0,-1.993964336971776e+18,1,1.0,0.9998077154159546,0.00019228458404541016,0.0,0.0,-0.20640690624713898,79.12603759765625,89.97077178955078,88.80000305175781,90.0,10.64764404296875,0.09121111035346985,-4.675715923309326,-2.7694077491760254,-0.11376953125,-0.121826171875,1.030517578125,1.2519084215164185,-40.77862548828125,-4.328244209289551,0.9989912509918213,-0.0005077730747871101,-0.04191012680530548,-0.016118912026286125,0.9998077154159546,2208,1028,98,1113,2128,2709,100839,46,90
68193,-2.598520517349243,9.244385719299316,-27.221492767333984,32.81951904296875,7611.5849609375,0,0,0,0,-1000.0,-1.993964336971776e+18,1,1.0,1.0000762939453125,-7.62939453125e-05,0.0,0.0,-0.1952989399433136,79.12603759765625,89.8777084350586,88.80000305175781,90.0,9.225875854492188,0.37068843841552734,-5.046019077301025,-2.815563201904297,-0.0888671875,0.158447265625,0.98095703125,1.6488549709320068,-41.1297721862793,-4.083969593048096,0.9988256096839905,-0.00031474611023440957,-0.04542925953865051,-0.01683701202273369,1.0000762939453125,2208,1028,98,1113,2128,2709,100839,46,90
68214,-2.972787618637085,9.423395156860352,-34.57632064819336,34.43690872192383,7610.89697265625,0,0,0,0,-5.775544936941769e+20,-1.993964336971776e+18,1,1.0,1.0003448724746704,-0.00034487247467041016,0.0,0.0,-0.18471992015838623,79.12603759765625,89.97663879394531,88.80000305175781,90.0,8.116058349609375,0.15830402076244354,-5.511092662811279,-2.767956256866455,0.003173828125,-0.161376953125,1.01513671875,1.85496187210083,-41.229007720947266,-3.396946668624878,0.9985640645027161,-0.0002003041299758479,-0.05059268698096275,-0.017613664269447327,1.0003448724746704,2208,1134,98,1114,2128,2708,100839,47,90
68234,-3.0331804752349854,9.648246765136719,-27.132408142089844,33.75519561767578,7616.79150390625,0,0,0,0,-5.775544936941769e+20,-1.993964336971776e+18,1,1.0,1.100656509399414,-0.10065650939941406,-0.055361080914735794,-0.012000000104308128,-0.1530262529850006,79.12603759765625,89.89887237548828,88.80000305175781,90.0,6.2422943115234375,-0.026952577754855156,-5.967024326324463,-2.7051429748535156,-0.143310546875,0.055908203125,0.915283203125,2.1603052616119385,-40.35877990722656,-4.229007720947266,0.9983766674995422,-0.0002052864438155666,-0.05403466895222664,-0.01800639182329178,1.100656509399414,2208,1134,98,1113,2128,2708,100839,47,90
68254,-2.473883628845215,8.035561561584473,-34.53402328491211,34.59851837158203,7616.74853515625,0,0,0,0,-36000.0,-1.993964336971776e+18,1,1.0,1.1102733612060547,-0.11027336120605469,-0.06065034866333008,-0.024000000208616257,-0.09409472346305847,79.12442016601562,89.98145294189453,88.80000305175781,90.0,6.146148681640625,-0.23415082693099976,-6.567963600158691,-2.6592023372650146,-0.126953125,-0.009033203125,0.96337890625,0.5496183037757874,-38.290077209472656,-1.3816794157028198,0.9980881214141846,-0.00041997135849669576,-0.05897226557135582,-0.018499262630939484,1.1102733612060547,2208,1134,98,1113,2127,2708,100839,46,90
68274,-2.356062889099121,6.832993984222412,-27.090869903564453,33.9383430480957,7621.859375,0,0,0,0,-36000.0,-1.993964336971776e+18,1,1.0,1.115081787109375,-0.115081787109375,-0.06329498440027237,-0.035999998450279236,-0.06671654433012009,79.1226577758789,89.8981704711914,88.80000305175781,90.0,4.0698089599609375,-0.3252131938934326,-7.075753211975098,-2.6144845485687256,-0.097900390625,-0.174560546875,0.969970703125,-0.7633587718009949,-35.98473358154297,2.458015203475952,0.99778813123703,-0.0006891919765621424,-0.06371407955884933,-0.01894557662308216,1.115081787109375,2208,1134,98,1113,2127,2708,100839,46,90
68294,-1.3674613237380981,6.726884365081787,-34.50507354736328,34.652950286865234,7621.3916015625,0,0,0,0,-36000.0,-1.993964336971776e+18,1,1.0,1.1246986389160156,-0.12469863891601562,-0.06858425587415695,-0.04800000041723251,-0.01580926962196827,79.12081909179688,89.98323822021484,88.80000305175781,90.0,2.6431121826171875,-0.5398751497268677,-7.675687789916992,-2.6006810665130615,-0.173583984375,-0.128662109375,0.996337890625,-1.3969465494155884,-35.167938232421875,-0.5190839767456055,0.997478187084198,-0.001045861979946494,-0.06823717057704926,-0.019491249695420265,1.1246986389160156,2208,1134,98,1112,2127,2708,100839,46,90
68314,-1.314443588256836,6.370991230010986,-27.06223487854004,34.041099548339844,7626.3271484375,0,0,0,0,98180234477568.0,-1.993964336971776e+18,1,1.0,1.129507064819336,-0.12950706481933594,-0.07122888416051865,-0.06000000238418579,0.00784103199839592,79.11882019042969,89.89576721191406,88.80000305175781,90.0,6.1000823974609375,-0.5537263751029968,-7.923196315765381,-2.593313217163086,-0.027099609375,-0.04052734375,1.00732421875,-1.5801526308059692,-33.435115814208984,0.4198473393917084,0.9971617460250854,-0.001626992248930037,-0.07257089763879776,-0.01998215541243553,1.129507064819336,2208,1134,98,1112,2127,2708,100839,46,90
68334,0.2546886205673218,6.387630939483643,-34.50611114501953,34.732295989990234,7626.59765625,0,0,0,0,98180234477568.0,-1.993964336971776e+18,1,1.0,1.1391239166259766,-0.13912391662597656,-0.07651815563440323,-0.07200000435113907,0.05181664973497391,79.11675262451172,89.98389434814453,88.80000305175781,90.0,10.73065185546875,-1.0251526832580566,-8.277762413024902,-2.5494158267974854,-0.07958984375,-0.02490234375,1.0703125,-2.6335878372192383,-34.06106948852539,-3.1526718139648438,0.996843159198761,-0.0024911323562264442,-0.07670342177152634,-0.020351151004433632,1.1391239166259766,2208,1134,98,1112,2126,2708,100839,47,90
68353,0.18645308911800385,6.532860279083252,-34.63005828857422,27.27277183532715,7622.2548828125,0,0,0,0,-604010643456.0,-1.993964336971776e+18,1,1.0,1.1439323425292969,-0.14393234252929688,-0.07916279137134552,-0.07916279137134552,0.07224667072296143,79.1145248413086,89.89139556884766,88.80000305175781,90.0,12.358322143554688,-1.350968599319458,-8.650397300720215,-2.470107316970825,-0.171630859375,-0.00244140625,0.982421875,-2.030534267425537,-31.290077209472656,-3.496183156967163,0.9965420365333557,-0.0035460309591144323,-0.08040162175893784,-0.020663943141698837,1.1439323425292969,2208,1134,98,1112,2126,2708,100838,46,90
68373,1.2883799076080322,4.763113021850586,-27.320556640625,34.188018798828125,7622.02587890625,0,0,0,0,-604010643456.0,-1.993964336971776e+18,1,1.0,1.1535491943359375,-0.1535491943359375,-0.0844520553946495,-0.0844520553946495,0.11023446172475815,79.11222076416016,89.92436218261719,88.80000305175781,90.0,22.171310424804688,-1.1674885749816895,-8.947135925292969,-2.393697500228882,-0.125732421875,0.064453125,1.0537109375,-3.755725145339966,-28.045801162719727,-1.534351110458374,0.9962484240531921,-0.004577940329909325,-0.08381709456443787,-0.021042825654149055,1.1535491943359375,2208,1134,98,1112,2126,2708,100838,46,90
68394,2.337965726852417,4.405500888824463,-19.905065536499023,33.56806945800781,7628.71875,0,0,0,0,-604010643456.0,-1.993964336971776e+18,1,1.0,1.1583576202392578,-0.1583576202392578,-0.0870966911315918,-0.0870966911315918,0.1278826743364334,79.1097640991211,89.87416076660156,88.80000305175781,90.0,31.081787109375,-0.8000393509864807,-9.340791702270508,-2.272000551223755,-0.126220703125,0.078369140625,0.976318359375,-5.229007720947266,-25.587785720825195,-4.229007720947266,0.9959685206413269,-0.005413191393017769,-0.08690925687551498,-0.02154720388352871,1.1583576202392578,2208,1134,98,1112,2126,2708,100838,47,90
68414,3.046900510787964,4.84913969039917,-27.293474197387695,33.24397659301758,7628.6767578125,0,0,0,0,-604010643456.0,-1.993964336971776e+18,1,1.0,1.1679744720458984,-0.16797447204589844,-0.09238596260547638,-0.09238596260547638,0.16069795191287994,79.10723114013672,89.86058807373047,88.80000305175781,90.0,28.271865844726562,-0.9923726320266724,-9.56656265258789,-2.070277452468872,-0.080810546875,0.17431640625,1.027099609375,-4.809160232543945,-23.664121627807617,-6.099236488342285,0.9957138299942017,-0.006361174862831831,-0.0896541178226471,-0.021808695048093796,1.1679744720458984,2207,1254,98,1111,2126,2708,100838,47,90
68434,3.1674344539642334,5.088602542877197,-34.6191291809082,33.95597457885742,7623.75537109375,0,0,0,0,-604010643456.0,-1.993964336971776e+18,1,1.0,1.2349412441253662,-0.2349412441253662,-0.12921768426895142,-0.10438596457242966,0.1891835480928421,79.10454559326172,89.96710205078125,88.80000305175781,90.0,29.269058227539062,-0.5524775385856628,-9.696764945983887,-1.9152464866638184,-0.07958984375,0.18310546875,1.136474609375,-4.43511438369751,-22.709922790527344,-6.351145267486572,0.9955434203147888,-0.006756508722901344,-0.09139583259820938,-0.022236285731196404,1.2349412441253662,2208,1254,98,1111,2125,2708,100838,46,90
